! Center RA: 12 21 31.69052,  Dec: +28 13 58.50019 (2000.0)
! Established model.
! Flux (Jy) Radius (mas)  Theta (deg)  Major FWHM (mas)  Axial ratio   Phi (deg) T \
! Freq (Hz)     SpecIndex
  0.124342      0.00000      0.00000 
0.00368465    0.0202604      90.0000 
0.000877067    0.0446338      116.996 
0.00290890    0.0720098      123.524 
0.00827591    0.0286526     -45.0000 
0.00816107     0.100252      126.784 
 0.0115180    0.0562440     -45.0000 
0.00238556     0.116465      121.027 
0.00421782    0.0896014      116.350 
0.00716078     0.107434      111.727 
0.00415192    0.0446338     -63.0042 
0.00283701     0.227911      105.272 
0.00348625     0.247514      104.036 
0.00253462     0.134233      116.565 
0.00137412     0.262662      98.7088 
0.000550565     0.280627      94.1402 
0.00284775     0.215843      111.838 
0.00115583     0.300838      93.8616 
0.000257013     0.322129      97.0919 
0.000246601     0.342244      96.6731 
0.000896171     0.365154      99.4623 
0.00149110    0.0720098     -56.4755 
0.000297342     0.234065      110.062 
0.000382227     0.369026      102.567 
6.89065e-05     0.107434      158.273 
0.000561071     0.388092      101.940 
0.00104166     0.791053      110.721 
0.000183232     0.126477      161.673 
0.00189834     0.798447      112.081 
0.000176431     0.126477      108.327 
0.000611200     0.286260      102.105 
0.000589565     0.121759      170.422 
0.000284022    0.0562440     -135.000 
0.000483163     0.411965      112.829 
0.000528682     0.266484      103.019 
0.000263922    0.0446338     -116.996 
0.00156307     0.430710      111.783 
0.00142568    0.0600310     -90.0000 
0.000413445    0.0802914      90.0000 
0.00129107     0.945882      103.441 
0.000158403     0.141777      171.784 
0.000595665     0.253192      108.489 
0.000409770    0.0998015      90.0000 
0.000143085    0.0828082      75.8378 
0.000285285     0.161111      172.776 
0.000553358     0.101837      78.5245 
0.00172135     0.950796      104.628 
0.000337821     0.592344      101.694 
0.000365992    0.0633577     -71.3505 
0.000977102    0.0896014      63.6495 
0.000198320     0.325253      79.3641 
0.000570948     0.181229      173.581 
0.000422979      3.31450      100.435 
9.79657e-05    0.0828082     -75.8378 
9.11599e-05     0.572519      102.105 
0.000443336    0.0896014     -63.6495 
0.00156078      3.59762      98.3109 
0.000113932     0.429314      117.819 
0.000150168      3.26979      119.701 
0.000555448     0.329594      75.9005 
0.000952283      3.31809      100.766 
0.000298595     0.189835      108.435 
0.000528836      3.29678      119.839 
0.000237661     0.100252      53.2159 
5.53571e-05     0.443026      108.466 
8.21981e-05     0.553458      102.529 
0.000361204      2.56516      100.791 
0.000594999      7.76476      110.347 
0.000559631      3.14110      125.402 
0.000383607      3.23348      106.530 
7.58953e-05     0.538618      105.101 
7.35607e-05      3.60718      106.422 
2.48935e-05      2.56888      101.218 
2.47312e-05     0.455823      105.272 
0.000460758      2.96057      116.916 
0.000840789      7.64737      112.609 
0.000259367      3.71385      112.150 
0.000892277      9.58798      110.516 
0.000273255     0.438758      120.073 
0.00119282      3.25979      119.392 
6.99598e-05      3.97779      108.158 
0.000697077     0.519084      105.684 
2.35229e-05      3.90877      108.804 
0.000872904      2.54599      100.873 
0.000210797     0.100252     -53.2159 
0.000110832     0.981011      106.578 
0.000192513      3.61296      106.730 
0.000472732      2.71635      103.629 
0.000123391      3.88960      108.900 
0.000188494      7.73200      110.123 
0.000149579      3.99104      107.801 
0.000106951     0.817257      111.547 
0.000201613      3.29892      100.829 
0.000163482      9.75704      111.148 
6.19887e-05     0.955909      105.760 
0.000504569      1.07726      111.794 
0.000405072     0.170734      110.586 
0.000420724     0.810035      110.214 
0.000273450      7.22351      107.733 
0.000234379      3.98489      107.524 
0.000129147     0.100252     -36.7841 
0.000704770      3.15288      125.703 
0.000106243      3.11014      105.290 
0.000187727      9.77594      111.105 
0.000425038      9.78325      111.215 
0.000188525      3.73262      112.032 
0.000718088      7.75774      110.207 
0.000122424      2.88606      110.692 
0.000102577      9.68285      108.175 
9.63027e-05     0.113549     -45.0000 
6.49251e-05      3.89621      109.182 
0.000373744     0.926189      103.732 
0.000120558     0.880204      90.0000 
0.000170609      7.22948      107.880 
0.000460272      2.87439      111.213 
0.000276902      9.67655      108.061 
0.000442005      3.99842      107.170 
3.14526e-05      9.53398      112.314 
9.06701e-05      3.61885      107.037 
0.000192426     0.449253      122.310 
9.71391e-05      3.70593      114.219 
8.54219e-05     0.116465     -31.0271 
9.82590e-05      3.75141      111.916 
0.000231358      2.50453      117.594 
0.000242981      9.54169      112.426 
0.000531915      7.20421      107.782 
6.63573e-05      2.73605      103.529 
2.81039e-05      3.97906      107.256 
2.74700e-05      3.90266      109.452 
0.000145409      7.90567      107.979 
6.49768e-05      7.90322      111.371 
0.000474315      9.70210      108.138 
0.000143275      3.59324      109.850 
6.38245e-05      3.30279      101.175 
3.90951e-05      9.36160      109.211 
0.000139067     0.880437      88.6814 
6.14939e-05      7.72505      109.982 
0.000165581      8.01581      112.599 
9.60423e-05     0.128090     -38.8171 
2.55317e-05      3.76952      111.806 
0.000417972      8.35127      113.126 
3.57728e-05      3.96039      110.080 
0.000612993      9.33581      109.134 
5.92415e-05      3.77681      112.080 
0.000495309      2.74127      125.204 
0.000125403      2.54225      100.424 
0.000241113      7.89944      107.839 
5.45258e-05      2.71165      103.213 
0.000140961      3.71398      114.494 
1.18630e-05      8.32407      109.216 
0.000228853      8.33076      109.347 
0.000325677      3.36506      93.0679 
0.000114772      3.22778      106.185 
0.000120657      3.79559      111.965 
5.34294e-05      8.31165      109.394 
0.000218411     0.145849      105.824 
2.83795e-05     0.334882      72.6613 
0.000102030     0.144435     -33.7726 
0.000288997      7.63960      112.469 
2.11172e-05      7.87062      111.153 
0.000341277      7.93140      104.458 
-0.000649920      3.56260      92.2573 
0.000303162      2.51871      100.054 
0.000181695      2.52250      117.381 
5.98955e-05      3.30677      101.519 
2.99928e-05      3.39898      120.795 
1.99807e-05      3.94208      110.177 
5.61471e-05     0.461573      107.699 
0.000122669      9.91167      109.200 
0.000191865      3.16475      126.000 
-0.000343203      9.41805      107.935 
1.93467e-05      7.86333      111.016 
0.000142852     0.881102      87.4129 
5.17824e-05      3.59948      107.132 
0.000120169     0.161670     -29.7779 
3.61139e-05      3.29090      101.922 
9.25041e-06      3.42638      120.901 
9.16642e-06      3.91635      110.011 
4.29772e-05     0.223431      169.747 
0.000134720      3.99248      106.892 
5.55298e-05      2.97865      116.739 
-0.000188207      7.45874      112.713 
0.000504097      3.36620      93.4122 
0.000123850      3.43683      121.191 
2.55445e-05      7.83021      110.797 
3.39251e-05      3.78834      111.692 
0.000190316      9.93010      109.163 
5.05941e-05     0.803259      108.858 
8.11540e-05      8.02333      112.728 
1.72472e-05      3.94911      110.453 
6.46084e-05      3.29514      102.267 
-0.000372230      3.36739      124.349 
0.000360658      7.21020      107.930 
0.000170210      3.52440      116.996 
3.72848e-05      3.11534      105.636 
2.39253e-05      9.76437      111.258 
-0.000107871      3.64997      120.641 
0.000174798      3.72242      114.778 
0.000187350     0.931206      104.943 
8.08840e-06      3.92306      110.279 
0.000130327      3.57716      101.937 
0.000127721      3.80717      111.579 
0.000125328      8.24099      113.453 
0.000125565      7.79694      110.572 
8.65174e-05      1.08495      112.788 
2.95982e-05      3.89731      110.113 
-0.000187799      7.69105      107.869 
0.000219021      3.61767      98.2646 
-0.000277434      3.42439      110.873 
0.000156407      3.60528      107.428 
-0.000368866      9.41183      107.818 
0.000106215      2.88178      111.588 
9.75546e-05      8.31840      109.525 
7.49591e-05     0.178866     -26.6725 
8.90290e-05      3.20905      106.282 
9.93373e-05      3.29951      102.611 
0.000189788      3.20397      126.371 
7.46482e-05      9.77146      111.365 
3.23633e-05     0.204262      168.773 
0.000240252      7.92637      104.316 
-0.000201963      7.45094      112.570 
-0.000197546      3.63969      120.366 
1.32766e-05      3.90407      110.382 
2.57959e-05      9.60696      110.473 
-0.000219576     0.278118     -149.699 
5.59210e-05      2.41374      96.1750 
-0.000145244      7.68485      107.725 
0.000117768      2.52233      100.508 
-0.000308883      3.41723      110.556 
-0.000179976      2.88756      97.9616 
-1.88980e-05      7.27768      106.441 
8.11632e-05      3.46466      121.304 
4.58385e-05      4.01115      106.811 
6.92220e-05      3.70472      114.904 
2.85825e-05      2.74086      103.941 
0.000131469      8.28749      109.744 
-0.000131217      7.28344      106.594 
7.36414e-05      3.14034      105.893 
7.40140e-05      3.79976      111.295 
7.95271e-05      9.66085      109.975 
6.10794e-06      3.87900      110.212 
6.81311e-05     0.197181     -24.0289 
6.87520e-05      3.30382      102.941 
-3.60540e-05      7.90793      109.807 
4.47996e-05      2.39231      95.7607 
6.25699e-05      3.29057      112.512 
7.29985e-05      3.61140      107.735 
-0.000156027      7.93386      109.895 
4.97561e-05      8.22240      113.510 
2.78547e-05      3.50635      117.146 
2.21389e-05      8.16475      106.213 
-4.96549e-05      7.63589      104.873 
-8.21373e-05      3.87013      94.1474 
-5.43032e-05      3.54311      92.2698 
-5.41872e-05      3.37218      123.877 
1.62115e-05      3.58641      109.546 
5.56993e-06      8.04916      112.807 
2.17602e-05      7.63217      112.334 
2.15270e-05      9.69581      108.024 
-4.30130e-05     0.816509      126.027 
-3.76150e-05      2.58364      93.1134 
5.47188e-06      7.91186      114.492 
3.20019e-05      7.63972      115.425 
3.74309e-05      3.73900      95.8284 
-2.66264e-05      4.30226      116.208 
1.58912e-05     0.907248      104.025 
1.59437e-05      2.85292      102.965 
5.31719e-06     0.323277      68.1986 
5.26528e-06      8.15936      109.323 
5.26618e-06      3.95623      110.728 
5.23973e-06      2.39435      96.2252 
5.22965e-06      9.77886      111.476 
0.000980954      7.81161      150.216 
-0.000863610      9.37252     -52.5438 
0.000350944      5.22690     -54.9729 
0.000591999      5.25451     -54.9141 
0.000705593      10.9600      129.967 
0.000527786      13.0931     -132.584 
-0.000732726      5.20002     -148.207 
6.45840e-05      4.11833      19.5773 
-0.000188304      9.47331     -103.803 
0.000560754      11.5213     -123.745 
0.000512376      10.1423     -28.8899 
0.000823794      4.09925      19.6722 
-0.000408525      10.3004      58.9017 
0.000814483      13.0479      132.889 
0.000268540      1.30215     -3.53514 
0.000499508      9.46454      150.781 
-0.000695560      13.3278     -136.704 
0.000445714      5.85259     -93.7198 
-0.000537021      8.79681      83.4709 
-0.000377040      11.2697     -32.1684 
0.000383611      9.48059      18.3188 
-0.000430796      9.46850     -103.684 
0.000424309      10.7811     -127.614 
-0.000381496      8.02184     -74.2320 
0.000475326      12.2513     -43.5457 
0.000376516      10.9031     -116.706 
0.000278101      1.32237     -3.48101 
-0.000113763      7.19575     -176.173 
-0.000263408      7.38504      99.6633 
-0.000214413      11.0833      48.8046 
0.000219139      11.6718     -29.6850 
0.000165284      7.51992      164.892 
0.000261984      10.3545      29.6342 
-0.000408395      6.46424     -72.3496 
0.000256324      6.91216      157.366 
-0.000307935      9.36022     -52.6423 
0.000203982      1.92118     -1.79061 
-0.000303820      3.91727      26.6927 
0.000252203      4.95013     -93.7026 
-0.000353325      6.44805      9.46451 
-0.000204233      7.17465      125.241 
0.000201529      9.35495      101.718 
-0.000102703      7.19442     -176.334 
-0.000250339      10.4127      23.0674 
-0.000248465      6.92759     -174.867 
0.000198411      7.82132      150.092 
0.000199202      7.52522      164.743 
0.000100347      8.06265      118.282 
5.14245e-05      11.6441     -29.6478 
-5.11774e-05      5.33526     -85.7008 
0.000146721      13.5087     -133.861 
0.000195700      11.2293      24.9690 
9.80350e-05      11.0663     -25.3626 
0.000196047      8.67506      167.212 
-9.89563e-05      10.2932      58.7504 
9.88498e-05      10.1478      19.9357 
0.000193894      11.6542     -29.7344 
9.79796e-05      9.65178     -30.9240 
-0.000144987      3.17011      50.8890 
-9.76398e-05      10.3756     -120.718 
-9.78967e-05      7.56929      8.81612 
-9.67658e-05      8.96381     -56.5587 
-9.64933e-05      6.23088      15.6430 
-4.91441e-05      13.0154     -38.8239 
0.000143549      5.83373     -93.9312 
-9.64088e-05      8.04134     -74.2713 
0.000142590      6.46120     -91.0647 
4.88184e-05      10.4770      111.619 
-9.62407e-05      7.40569     -68.2881 
0.000142768      9.44686      150.721 
-4.85032e-05      9.01349     -136.889 
4.85363e-05      6.02042      29.8884 
9.46282e-05      9.52217     -48.5749 
4.79005e-05      13.0799     -132.522 
4.75969e-05      2.98083     -11.6183 
4.75443e-05      7.55110     -60.3116 
4.73129e-05      10.4653      135.311 
-4.73204e-05      11.6199     -142.834 
4.72316e-05      10.4845      111.721 
4.72161e-05      10.9212     -116.658 
-4.68985e-05      12.0749      41.2409 
-4.67783e-05      12.5565      41.2542 
4.66111e-05      9.46136      18.3574 
4.63863e-05      10.1246     -28.9453 
0.000789138      7.53148     -60.5745 
-0.000345509      11.3406      37.4750 
-0.000975746      11.9878      49.5341 
-0.000461814      10.3667     -121.913 
0.000376863      8.27555     -29.5380 
0.000562276      9.44206      82.4559 
-0.000179116      9.26782      174.177 
0.000501830      6.19857     -153.351 
-0.000262439      11.7979     -150.219 
-0.000538731      3.22591     -19.5561 
-0.000182496      6.32358      178.007 
-0.000282568      11.2972      37.5192 
-0.000250490      10.3839     -121.854 
0.000132594      10.6724      146.311 
-0.000177688      7.68631      137.425 
-0.000135316      7.02185      128.178 
-0.000213312      5.59268      57.5595 
0.000213023      8.26595     -29.4204 
-4.48367e-05      6.91969      72.5062 
-0.000126210      6.21607     -53.2449 
-0.000238377      11.9651     -134.459 
0.000267420      2.48811     -85.3813 
-4.39497e-05      7.71523      169.243 
-0.000123924      11.8098     -134.382 
4.38402e-05      10.3677      146.648 
0.000122747      5.82417      164.057 
-0.000230803      6.91363      72.6664 
-8.33687e-05      7.51171      169.257 
-4.27997e-05      9.26982      174.057 
-0.000301031      8.40223     -136.158 
0.000196788      10.3508      146.586 
-0.000317748      8.05588     -22.1691 
-0.000437975      7.73894      169.124 
-0.000339088      7.03393      128.303 
-0.000117318      2.35305     -117.873 
7.99359e-05      9.48693     -34.6931 
-0.000233214      11.1774      37.7292 
0.000183056      10.8744      145.111 
-0.000117750      7.03383      10.3185 
-0.000378316      7.33924      84.0551 
-0.000242621      6.36481      177.838 
-0.000117048      6.14810      52.5329 
0.000370960      9.50298     -34.6262 
-0.000212892      11.6668     -47.7789 
-0.000177375      7.70069      137.524 
0.000549579      10.2987     -173.868 
-3.98193e-05      11.8238     -134.316 
-0.000220992      10.0356     -22.3750 
0.000233590      11.2666      125.608 
0.000259937      6.98939      92.9539 
-3.90625e-05      10.6686      55.3867 
0.000137925      6.58208      88.6086 
-0.000108434      2.38809     -126.477 
-3.85474e-05      6.43561     -55.1240 
-0.000171726      10.9192      55.1457 
3.82380e-05      11.6645     -144.703 
-0.000133881      10.1107     -177.392 
0.000143986      12.2729      126.384 
0.000193898      9.08853      62.4765 
-7.39470e-05      2.58760      60.8631 
-7.28111e-05      7.49181      169.228 
0.000142896      3.56028     -152.565 
-3.74332e-05      12.0009      49.4605 
0.000104641      8.94163     -144.285 
-0.000136108      9.69002     -7.82891 
0.000162144      7.48836     -34.1152 
8.81234e-05      10.5646      144.867 
-0.000291701      10.3268     -8.23844 
-7.01440e-05      7.58846     -97.7231 
0.000582197      11.6528     -144.784 
0.000221557      9.67690      171.083 
0.000279575      10.3369      52.3107 
-0.000102647      10.4831     -165.300 
-0.000229984      11.8096     -134.246 
-6.99252e-05      6.41962     -55.0244 
-0.000177527      9.96457      5.41436 
-0.000178443      7.73569     -135.106 
0.000427677      7.10885     -130.321 
0.000194029      9.18753      100.285 
0.000101726      3.98186     -1.72786 
-0.000164990      10.0176      153.690 
0.000330097      9.15072     -171.075 
-0.000379782      11.2050      28.5783 
-0.000131830      6.14501      52.2723 
0.000290084      11.8786      147.515 
0.000338690      12.2712      54.4196 
-6.58995e-05      9.24810     -4.46752 
0.000345697      10.3619      146.493 
-3.47436e-05      10.1681     -92.2543 
-0.000117266      9.69280     -7.94756 
-3.46169e-05      5.59898      57.8457 
-6.70570e-05      9.46728      35.3693 
0.000128728      9.65583      53.0838 
0.000122328      1.91059     -70.4264 
-0.000172442      2.56993      60.6432 
-0.000125420      7.01389      10.3482 
3.39581e-05      6.20765     -153.602 
-0.000120198      4.85414      146.769 
3.36889e-05      8.18794      36.7586 
-3.34428e-05      10.3732     -121.758 
-3.34044e-05      10.1487     -92.3731 
0.000509901      11.1610      156.558 
0.000124545      8.32993      164.830 
-0.000300016      11.9914     -148.641 
3.31688e-05      5.84293      164.109 
-6.47064e-05      7.21416      66.9900 
-9.07392e-05      6.48925     -50.1274 
9.41859e-05      13.0659      128.536 
-0.000133591      12.3094     -138.227 
-0.000143829      6.89501      72.6181 
-0.000147494      9.21576     -147.587 
-0.000116615      11.9788     -134.525 
-0.000327139      4.85723     -54.2154 
9.45709e-05      6.52011      90.0000 
6.20580e-05      6.96915     -87.0375 
-0.000211170      10.1293     -92.4881 
3.23823e-05      3.54297     -152.420 
9.22036e-05      12.5015     -35.9551 
0.000147676      8.20008      36.8720 
0.000107577      5.00307      177.937 
0.000170625      12.2845      126.458 
-0.000303708      11.4341     -150.791 
-6.13306e-05      2.44666      81.5344 
0.000413560      10.2485     -4.25359 
3.17066e-05      9.32446     -17.3471 
0.000309519      10.9483     -63.9952 
0.000109099      8.65929      64.2632 
8.87750e-05      13.3438     -40.8064 
0.000141571      11.9983     -127.959 
0.000297161      3.55099     -152.856 
0.000237056      11.4977      120.758 
-6.02025e-05      11.7684     -59.1208 
-3.10815e-05      3.33149     -85.1806 
-0.000204831      6.06051      175.270 
3.09434e-05      6.71250     -84.3544 
-5.95502e-05      12.0053     -142.308 
-0.000111041      9.05841     -149.190 
-5.65263e-05      6.41469     -54.7724 
-3.07753e-05      2.37183     -126.768 
3.07262e-05      10.8584      145.052 
5.67947e-05      10.9437     -61.7498 
-3.05286e-05      6.16200      178.514 
-0.000114833      5.25953      62.8537 
-5.86019e-05      8.72005     -6.71589 
-3.04890e-05      6.42414      52.8423 
-3.03764e-05      8.42113     -47.2136 
-3.02550e-05      9.48381      35.2984 
5.91018e-05      5.88319     -98.4050 
-3.01140e-05      9.02576     -136.438 
0.000160317      10.1699      121.409 
0.000253339      3.67881      55.1851 
0.000131656      13.0863     -48.0983 
5.93500e-05      9.30512     -17.3843 
0.000439730      10.5261     -19.5368 
-0.000303772      7.20348      66.7787 
0.000244313      10.3382     -135.550 
-0.000161039      9.26848      70.1948 
2.96916e-05      3.96105     -1.44376 
-7.96703e-05      10.5027     -165.328 
-0.000158143      11.8393     -41.9891 
2.95663e-05      8.46276     -152.406 
0.000110138      8.75506     -107.276 
-0.000105559      10.2250      45.3984 
-0.000304968      10.4846      163.258 
8.28402e-05      9.46652     -31.1725 
-0.000157836      8.56031     -68.0512 
0.000132106      4.97029      77.9216 
-5.71187e-05      7.41234     -147.338 
-0.000105739      10.1107     -92.6076 
-8.12136e-05      10.9026      55.0849 
0.000562083      11.0041      142.757 
0.000131506      9.67204      53.1559 
-5.70319e-05      8.19268      133.122 
-2.88046e-05      7.71388      137.417 
0.000269262     0.975885     -135.841 
0.000123961      11.3161     -56.1687 
-2.87170e-05      8.38821     -136.258 
0.000107570      12.0868      56.3346 
8.00134e-05      8.09367     -77.4430 
5.59540e-05      1.25851      107.560 
0.000584690      11.8957      147.567 
0.000169619      13.3412     -40.9267 
-0.000113427      10.0358      153.741 
8.13216e-05      9.34412     -37.4331 
0.000328843      9.33029     -17.4615 
-5.57743e-05      4.86486      146.577 
5.57207e-05      2.63766      17.1926 
-0.000186977      6.35008     -174.399 
-2.83210e-05      7.46887      169.353 
5.55476e-05      12.9088     -127.511 
2.81971e-05      6.21668     -153.435 
-2.81194e-05      13.4931     -44.1596 
0.000220227      11.7928      56.5526 
-7.61805e-05      10.4689      46.5480 
0.000105808      9.19104      100.404 
2.79303e-05      6.87814     -26.4169 
5.39049e-05      8.31110      164.794 
-2.78060e-05      7.72881      137.518 
-2.77260e-05      2.35563     -127.063 
-2.77101e-05      2.44960      81.0830 
-0.000322819      12.3642      35.3877 
-2.75700e-05      8.06355     -22.3024 
2.74466e-05      6.69430     -84.1712 
6.70005e-05      3.98130     -1.43641 
0.000375350      10.6769      162.448 
-0.000105513      10.5000      106.260 
-7.95593e-05      8.20748      133.025 
-7.27950e-05      8.40232     -136.350 
-0.000289966      6.79806     -116.944 
-5.27473e-05      12.0214     -142.367 
-5.18245e-05      9.71009     -7.81263 
-0.000395869      9.28780      2.34297 
-5.17430e-05      11.6805     -47.7053 
-0.000111446      8.40627     -47.1198 
-2.70248e-05      9.26143     -101.966 
9.86464e-05      8.20418      36.6739 
-7.86633e-05      8.14068     -62.4901 
2.69880e-05      8.45424     -152.220 
2.69436e-05      6.52014      90.1780 
0.000203816      12.9733      43.4368 
-0.000237573      7.43930     -147.293 
-9.73385e-05      3.39438     -81.8663 
2.68559e-05      7.20083      62.7220 
7.51839e-05      9.62210      41.3768 
2.68178e-05      6.44827      106.579 
-5.22487e-05      11.7410     -59.1518 
0.000144683      6.92277     -26.4206 
9.31217e-05      2.79627     -11.5481 
-0.000109958      6.50178     -49.9955 
-7.31225e-05      11.9507     -134.527 
-5.22841e-05      3.07550     -79.1287 
-9.82765e-05      4.81196      142.935 
-2.64254e-05      6.12900      52.1564 
-2.64051e-05      11.5060     -117.989 
-2.63826e-05      13.5218     -44.1613 
-0.000201236      8.53234      131.195 
-7.36408e-05      10.1302     -177.397 
-7.60656e-05      4.86866     -54.0291 
-2.61206e-05      13.8248      136.936 
0.000316751      12.9207     -127.579 
0.000285935      11.7202      59.3219 
4.96459e-05      9.68163     -34.9058 
2.60671e-05      7.18283      62.6479 
5.03809e-05      5.89757     -97.9940 
-0.000119964      7.77206     -145.698 
-4.86580e-05      9.05493     -136.790 
-0.000140148      5.25066      63.0431 
-9.75912e-05      9.74963     -5.76895 
4.82634e-05      12.4897     -35.8798 
-4.93930e-05      7.74264      168.982 
4.95729e-05      8.47217     -152.284 
-4.81779e-05      8.73943     -6.70093 
-5.01734e-05      7.18486      66.7150 
4.80274e-05      7.18785      16.8213 
4.92046e-05      4.85451      173.138 
-8.54457e-05      12.3224     -138.160 
7.27441e-05      6.60211      88.4369 
0.000145127      10.6650      62.0430 
0.000285177      7.17354      62.7917 
-0.000223182      10.3186     -147.265 
0.000408659      11.3270     -56.0868 
6.91352e-05      11.9124     -36.4649 
2.53192e-05      11.0338     -65.2458 
0.000230967      7.44342      43.0391 
-0.000217473      9.77396      33.8218 
-0.000203099      11.5141     -117.858 
-2.52381e-05      3.37213     -62.8305 
0.000112947      6.42308      106.458 
2.51969e-05      9.05738     -166.855 
2.51463e-05      7.97388     -78.7176 
-0.000141234      10.5194      106.229 
-2.50371e-05      6.38431      177.845 
2.50073e-05      6.52023      90.3495 
2.50183e-05      7.26795      92.6807 
-0.000157551      7.42878     -147.419 
-0.000147977      8.84033      90.1313 
-2.48592e-05      12.0173     -142.234 
0.000133403      2.65136      16.6604 
9.23300e-05      7.34882     -151.200 
2.48244e-05      11.0140      57.6081 
-0.000307976      8.74460      23.1637 
-0.000208332      12.5604     -46.0312 
0.000155216      12.5406      144.739 
0.000248252      11.5332     -30.0783 
7.03444e-05      8.88010     -90.1307 
2.46515e-05      9.89269      72.2234 
2.46112e-05      13.0532      128.467 
-0.000152255      8.12271     -62.4241 
4.69807e-05      9.08173     -166.759 
-4.79890e-05      8.17884      133.018 
-2.44853e-05      9.49735     -102.280 
-4.74641e-05      3.05561     -79.0571 
-6.58664e-05      9.24964     -4.58801 
2.43721e-05      7.86680      177.671 
-0.000323951      10.3696     -111.617 
-2.43719e-05      9.32355     -84.4624 
4.67308e-05      8.81180      87.0077 
9.09188e-05      9.44983     -31.2337 
-0.000394307      13.8115      136.995 
0.000203352      8.73572     -107.316 
-6.57610e-05      7.47264      169.200 
-0.000119623      13.5072     -44.2212 
4.69098e-05      12.3555     -39.7468 
4.18564e-05      9.07057      62.4174 
-0.000292189      9.98064      151.124 
0.000155773      11.0154     -65.2017 
-6.69774e-05      4.41560     -170.877 
-2.39497e-05      9.06970     -136.877 
8.95689e-05      12.0756      56.4146 
-0.000171832      14.0895      43.6189 
-4.64341e-05      10.3080     -147.356 
-0.000322899      9.48189     -102.426 
-6.79976e-05      11.5497     -146.942 
0.000285477      12.0013     -127.825 
-2.36471e-05      11.7236     -59.1010 
-0.000196372      12.0333     -142.293 
2.36078e-05      12.4479      125.453 
0.000249786      7.18486     -66.7150 
-6.58994e-05      4.73245      32.7527 
-0.000248392      11.4164     -150.741 
-6.47655e-05      6.40531      177.677 
2.34215e-05      7.50514     -34.0285 
-4.41535e-05      10.0367     -7.09473 
2.34016e-05      12.1505      125.757 
8.30551e-05      9.88653      72.3352 
-2.33282e-05      7.34128      83.9036 
2.33017e-05      9.19472      100.529 
2.33076e-05      9.17073     -171.094 
-4.53693e-05      7.78818     -145.779 
4.55450e-05      12.8975      45.2522 
-0.000134290      11.2212      37.6868 
-0.000226587      10.2500      85.6376 
-0.000104381      12.3119     -47.1043 
0.000274044      8.58925      46.9825 
-2.32479e-05      2.32830     -126.970 
0.000141943      7.73687      116.565 
-2.30801e-05      11.9470     -131.267 
4.53293e-05      9.65376      171.183 
-0.000224818      11.8795     -134.591 
8.75150e-05      9.28409      101.431 
6.39826e-05      12.2802      126.590 
-0.000216342      8.62085      59.9266 
-8.33338e-05      13.8303      47.5199 
6.53283e-05      8.46335     -152.104 
0.000262985      9.85466     -74.5796 
0.000314055      9.60691      41.4566 
2.28015e-05      10.5480      144.804 
-0.000112224      5.26917      97.8578 
4.51641e-05      11.4802      120.810 
4.44793e-05      7.75500      116.498 
-0.000182120      9.41834     -107.551 
4.43704e-05      13.3873     -132.942 
2.25845e-05      12.4362      125.377 
-2.25345e-05      11.7510     -59.0701 
8.77053e-05      10.6558      62.1357 
-0.000145120      11.8248     -42.0523 
4.38400e-05     0.975367      64.4798 
0.000105238      10.1594      121.311 
-8.02063e-05      9.93002     -38.0485 
-0.000231801      14.0629      46.6151 
-4.39880e-05      3.35412     -62.6725 
-2.24179e-05      9.26163      70.3128 
-6.31038e-05      7.97842     -93.8829 
-2.24035e-05      8.07126     -22.4355 
-2.24313e-05      13.4646     -44.2775 
4.38963e-05      6.52061      90.7055 
-0.000257225      10.3558     -56.3410 
-0.000225241      9.04844     -149.296 
2.23228e-05      7.95080     -78.8332 
-3.92852e-05      7.61075     -133.722 
2.22216e-05      9.36966      57.0252 
0.000101921      8.64104      64.2049 
0.000141151      12.8844     -131.160 
-6.32049e-05      10.2392      45.3177 
8.08695e-05      12.3270     -39.7346 
0.000196421      13.0712     -48.0389 
-5.62589e-05      9.76904     -5.75745 
-2.19835e-05      3.20753     -19.6728 
-0.000107773      13.4583      47.1081 
-0.000326484      14.1597     -133.684 
-9.61549e-05      5.26644      97.6394 
9.58079e-05      3.53364     -152.711 
0.000136758      12.0682     -53.0168 
2.18731e-05      12.4314      125.507 
-0.000104397      9.83328      150.514 
0.000135677      8.21984      36.5927 
-0.000134285      7.46350     -66.8014 
4.24845e-05      13.0407      128.397 
2.17214e-05      8.09473     -116.879 
-5.89829e-05      10.0533      153.791 
-0.000290560      10.5138      106.123 
-4.14145e-05      4.79978      143.128 
0.000153487      8.08592     -116.755 
2.15206e-05      11.0197      57.7514 
0.000155153      12.5108      42.7954 
-2.14768e-05      8.26086     -69.1516 
2.14679e-05      10.6471      61.9919 
-9.78638e-05      11.7336     -59.0193 
7.76300e-05      8.41124      42.1073 
0.000119801      10.1835      172.668 
0.000116011      13.3883     -132.820 
0.000333518      11.4699      120.723 
9.68660e-05      3.52643      47.9929 
-2.13389e-05      6.04106      175.255 
-2.12819e-05      7.01863      128.402 
9.52731e-05      9.44474      82.3341 
7.92758e-05      9.34205      57.0579 
6.19119e-05      12.4387      125.708 
6.00216e-05      5.03666      67.0984 
-0.000117176      9.81706      114.686 
-0.000131810      9.78719     -5.62754 
-4.08696e-05      12.1177     -42.4577 
-4.11446e-05      6.79700      52.0535 
-0.000182191      11.2052      37.7501 
4.11893e-05      8.63998      163.874 
-4.12826e-05      9.57329      49.3198 
-4.07509e-05      2.28376     -127.175 
9.69980e-05      10.9579     -34.9666 
8.00718e-05      7.33173     -151.127 
-3.56161e-05      10.2916     -147.297 
7.51888e-05      12.8831      45.1888 
4.10808e-05      10.5321      144.743 
-2.09519e-05      8.10453     -22.6427 
-0.000186581      10.1284     -92.3778 
0.000113950      9.06201     -166.730 
0.000501951      10.6379      62.0847 
5.94941e-05      5.31265     -116.373 
2.08242e-05      10.1609      172.762 
3.98982e-05      2.82025     -6.92269 
2.08686e-05      5.01580      4.57358 
5.63787e-05      9.31401      98.1471 
-4.04569e-05      12.3401     -47.1019 
-3.92112e-05      6.12503      51.8960 
-4.01377e-05      7.70955     -18.7647 
7.75622e-05      11.9386      46.2199 
8.00276e-05      4.77599      109.571 
4.10920e-05      7.84380      36.8096 
4.04838e-05      11.1945     -65.1768 
2.06974e-05      7.51650     -34.1565 
2.06812e-05      8.99859      159.712 
9.81520e-05      9.46684     -73.5574 
5.87125e-05      13.3285     -40.8634 
-2.05743e-05      13.4356     -44.3981 
-0.000218255      9.00527      150.019 
-5.88598e-05      9.75195      140.827 
-7.85407e-05      8.76323      23.1116 
2.04717e-05      5.30892     -40.1094 
0.000114229      12.0644      56.4948 
5.72135e-05      6.94092     -26.3462 
-9.45417e-05      5.24151      63.2405 
2.03975e-05      10.8534      144.903 
3.94311e-05      11.0823     -38.7743 
-0.000338681      12.2887      140.481 
-9.20965e-05      7.76679     -145.490 
3.85696e-05      9.30798      101.528 
2.02834e-05      6.52088      90.8769 
-3.95939e-05      4.39634     -170.837 
-0.000166435      8.90112     -154.584 
-5.89377e-05      3.18293      50.6060 
-0.000161583      11.2472     -28.1141 
-0.000389418      9.79401      119.077 
-2.01538e-05      3.37432     -81.8176 
-0.000116929      13.3207     -50.2382 
7.63782e-05      12.8711     -131.093 
-7.82442e-05      11.6430      123.936 
0.000193148      13.2961     -137.866 
0.000108929      11.3976     -141.343 
-2.00807e-05      12.2456      140.433 
-5.80996e-05      6.63484      146.935 
3.91725e-05      7.47209      118.282 
-3.95789e-05      13.4217     -44.4564 
-3.95421e-05      7.48213     -66.8625 
-3.88135e-05      10.2208      89.4405 
-5.68391e-05      11.9542     -133.441 
-3.71417e-05      9.63705      80.3220 
3.87369e-05      10.2845      146.744 
0.000106719      8.97959      159.668 
1.97055e-05      5.89479     -97.7990 
3.89250e-05      5.01869      67.0118 
-1.96975e-05      9.32553     -84.3385 
0.000213410      10.7746      30.3259 
-5.43385e-05      3.36347     -62.3659 
-3.76619e-05      10.4296      47.0963 
0.000110297      12.4341      125.839 
1.95534e-05      5.29344     -40.2507 
-0.000437979      11.9739     -129.645 
3.85464e-05      8.47284     -151.982 
-1.94004e-05      11.5710      46.2612 
1.93637e-05      5.36376      177.859 
-0.000236039      10.7710     -18.4009 
-0.000109271      10.4569      168.304 
1.92104e-05      9.60897      157.226 
-1.92325e-05      9.02598     -136.617 
1.92092e-05      6.52122      91.0549 
-1.92389e-05      9.39609     -129.211 
7.31319e-05      1.22013      180.000 
-1.92159e-05      8.93116     -16.1219 
1.91202e-05      10.5284     -105.197 
-3.68573e-05      8.13103     -22.7195 
-5.02360e-05      9.24942      70.1523 
1.90604e-05      8.85991     -90.2572 
3.63658e-05      12.2373     -37.5635 
-8.85352e-05      9.61369      80.4208 
3.74299e-05      7.86003      36.7211 
0.000116792      7.51450     -60.5014 
5.47796e-05      7.47956     -35.0900 
0.000211551      4.75690      109.653 
-1.89041e-05      4.40317     -155.300 
-9.13667e-05      13.4072     -44.5170 
-1.88572e-05      10.1721     -152.225 
3.70155e-05      12.1386      125.680 
3.69348e-05      13.0001      128.315 
-3.65017e-05      10.1450      1.80566 
5.52649e-05      11.7377      59.3723 
-0.000207423      11.8666      49.0332 
-5.18581e-05      9.56009      49.4119 
-5.20681e-05      6.88920      72.7729 
-0.000256666      9.98087      90.6892 
-7.58006e-05      11.9809     -148.724 
3.56543e-05      11.6236     -139.816 
-0.000123279      3.16787      50.3821 
0.000179710      10.4304     -124.851 
-3.65877e-05      4.74950      32.6205 
-0.000270803      11.6321      123.856 
-0.000104215      9.23121      14.4271 
0.000138795      11.1863     -65.2675 
0.000272028      11.3515      25.7960 
8.67779e-05      9.66043      168.898 
-0.000129480      7.42289     -147.211 
-3.62475e-05      3.37715     -81.4900 
6.88662e-05      10.2565      146.776 
1.85587e-05     0.962396     -136.674 
5.26810e-05      6.52162      91.2329 
5.40852e-05      9.62766      157.272 
-9.96390e-05      10.2532      27.9154 
0.000151094      8.39387     -169.013 
-6.84467e-05      8.39250     -47.2211 
3.58823e-05      10.8481      144.758 
-1.84321e-05      11.7222     -47.6281 
-0.000132443      14.1035      43.6785 
-3.62202e-05      7.45122      162.342 
7.05764e-05      8.49074     -152.047 
3.60763e-05      4.78281      109.800 
3.51285e-05      5.32151     -40.2700 
0.000159397      12.5294      144.812 
-3.55151e-05      9.40891     -129.307 
0.000193664      10.6485     -158.976 
-0.000268915      11.8058     -47.4703 
0.000112876      7.48136      118.413 
-8.54307e-05      4.64049     -130.278 
0.000100759      13.4910     -42.4167 
-0.000130127      7.70626     -21.3031 
0.000100153      9.73603     -103.178 
1.80879e-05      13.3438     -130.806 
1.81020e-05      4.74921     -26.7837 
3.56045e-05      9.31403      57.0948 
0.000114839      9.46134     -73.6707 
1.80620e-05      10.5156      144.679 
0.000127585      10.9761      142.774 
-8.34301e-05      9.77750     -3.40106 
-0.000257105      10.7431     -47.3381 
1.79852e-05      6.62295      88.2665 
-9.97648e-05      9.43237      85.2587 
-0.000126528      12.3268     -47.1684 
-9.86208e-05      8.91943     -154.640 
6.90342e-05      3.68337      55.6171 
-6.75362e-05      6.62422      147.077 
-4.89986e-05      9.79080      33.7558 
0.000124680      10.5204      70.2222 
0.000177542      11.9668      46.2195 
6.92981e-05      12.5375     -141.412 
-1.79147e-05      4.37634     -170.794 
5.17590e-05      9.31097     -17.4989 
-9.70019e-05      14.4674      135.055 
0.000188452      7.88778      36.7543 
0.000110511      3.59845     -121.128 
6.73435e-05      7.15894     -66.8022 
3.49352e-05      7.24512      62.7290 
-6.56332e-05      9.38073      37.7242 
-0.000106565      9.90085      89.1879 
-3.45575e-05      9.94295     -57.6509 
0.000126202      5.33081     -116.277 
-7.94590e-05      9.73917      140.920 
-3.50445e-05      8.84031      90.0000 
-7.92617e-05      6.37025     -174.416 
-3.18196e-05      8.70285     -116.921 
3.49538e-05      8.85984     -90.1310 
-3.45665e-05      7.97976     -94.0227 
-0.000128108      10.2515      85.5247 
0.000280158      1.94068     -1.77261 
-1.76400e-05      11.9603     -131.340 
0.000127160      11.3887      49.3447 
-1.75973e-05      4.88115      146.703 
5.04947e-05      10.2238      53.5119 
8.22218e-05      10.0077      177.710 
9.85257e-05      12.1104      125.658 
-0.000157680      7.17688      66.8636 
-8.08378e-05      10.0464     -123.057 
0.000133779      12.8337      40.7677 
-8.33143e-05      11.5166     -129.079 
-1.75020e-05      11.9761     -148.036 
-0.000126186      9.42424     -107.665 
-0.000457669      10.5325      106.094 
4.99307e-05      5.02664      66.7992 
9.84676e-05      6.69826     -7.55096 
-9.45788e-05      4.88446     -54.1635 
0.000154247      12.9875      128.245 
1.73743e-05      7.31400     -151.050 
0.000182849      11.7480      59.2873 
-3.32585e-05      11.5575      46.3311 
-1.73666e-05      10.3621     -111.513 
4.68224e-05      4.72267     -26.6709 
0.000163304      12.8189      40.8247 
-0.000111319      9.90217     -38.0258 
-0.000186648      10.6515     -16.3590 
1.73265e-05      9.88040      72.4471 
4.94932e-05      2.67078      16.5358 
-1.72648e-05      5.24710      97.6677 
6.37640e-05      9.32710      101.504 
0.000138044      12.0536      56.5721 
7.55499e-05      6.55903      107.937 
1.71592e-05      9.19187      103.974 
-1.71775e-05      10.3450     -56.4310 
-0.000109965      13.3928     -44.5778 
-8.03367e-05      6.80632     -116.718 
-6.37449e-05      8.54570      131.298 
0.000127696      4.03357     -112.754 
3.32185e-05      12.5251      42.7348 
-6.41560e-05      5.24987      63.5338 
-3.38465e-05      10.3507     -111.659 
-0.000127303      7.42006      137.841 
-1.69457e-05      9.62258     -8.36706 
0.000110021      12.0960     -52.9957 
-8.05226e-05      11.9696     -147.902 
-0.000138380      9.42401     -129.232 
1.69293e-05      3.54002      47.7492 
4.88003e-05      9.64635      157.319 
-3.33546e-05      9.78276      114.523 
-9.39213e-05      8.90259      91.2896 
1.68597e-05      9.35906      57.1254 
-8.14869e-05      9.97296      153.693 
0.000153826      9.38464     -178.167 
3.29627e-05      8.39766      42.0047 
-3.28735e-05      7.19121     -125.148 
4.92969e-05      9.84929     -74.6932 
4.66574e-05      7.69136      122.036 
3.12757e-05      9.56203     -88.7994 
-1.67207e-05      13.8440      47.4581 
-4.82440e-05      9.32000     -52.7611 
7.61036e-05      9.53687      104.327 
1.66903e-05      12.4177      125.893 
-1.66852e-05      4.14716      75.7651 
0.000194488      9.33105      57.1623 
-0.000124828      9.03102     -149.231 
1.66249e-05      6.15855      130.261 
1.66242e-05      7.49554     -35.0042 
-1.65960e-05      11.8620     -42.5414 
-0.000180333      10.4610      168.195 
-0.000107516      10.3935      40.8633 
-6.38201e-05      14.0347      46.6162 
-1.65554e-05      3.16532      49.8657 
7.52957e-05      10.2470     -4.14062 
3.16980e-05      12.2528     -37.5078 
-6.27979e-05      10.9898     -21.5689 
-3.21609e-05      11.5938     -132.414 
3.18607e-05      11.5599     -30.1135 
1.64760e-05      8.50025     -151.926 
-0.000240775      10.3433     -111.554 
-0.000119170      6.51482     -49.8590 
-1.64601e-05      9.18159      15.6707 
3.23716e-05      12.5517     -40.6700 
0.000178718      12.0137     -127.901 
3.22801e-05      8.85982     -90.0000 
-8.97471e-05      12.5317     -46.0335 
-0.000167918      10.1479     -92.2588 
0.000120962      1.22030     -179.049 
8.87134e-05      12.2594      54.4966 
0.000148326      8.24039      36.3116 
1.63790e-05      4.98288      178.162 
7.61740e-05      8.07682     -116.627 
1.63430e-05      12.2877      126.795 
0.000147961      11.4052      62.5347 
0.000121561      3.52505      47.5278 
9.06250e-05      9.58229     -88.8019 
8.98219e-05      9.04229     -166.701 
0.000132568      12.5502     -141.340 
0.000106136      12.4058      125.818 
1.61901e-05      12.7583     -131.060 
-1.61865e-05      7.86383     -134.177 
-6.15650e-05      10.9973     -21.6671 
3.17323e-05      9.16824      103.885 
-9.17386e-05      3.14985      49.6282 
6.29156e-05      12.5484     -53.7510 
0.000147829      11.9230      147.535 
-3.12421e-05      6.00840      57.3658 
0.000162786      11.8136      39.1611 
4.74670e-05      12.5217     -141.355 
-3.14720e-05      9.96007     -57.7132 
-3.13633e-05      7.95955     -94.0329 
0.000106432      9.29165     -17.5365 
0.000136107      11.1779     -65.3619 
-7.71145e-05      10.2054      68.2620 
4.61889e-05      9.51966     -34.5569 
6.17432e-05      8.51747     -151.988 
3.11951e-05      10.2401      53.5794 
1.59268e-05      5.91141     -97.5788 
3.09126e-05      11.3952      147.398 
1.58676e-05      6.14548      130.116 
-7.61077e-05      7.36083     -68.3125 
1.58743e-05      13.3586     -130.752 
7.40680e-05      11.4569     -135.990 
-4.46668e-05      10.7712     -47.3348 
2.99683e-05      6.54348     -128.799 
-3.10218e-05      9.81630      150.458 
6.07509e-05      3.67196      55.8780 
0.000163129      9.46302      68.4213 
-5.98382e-05      10.0859     -61.4538 
0.000190351      10.6464      62.2321 
4.65180e-05      8.38262      42.0974 
-1.57837e-05      11.5053     -56.9183 
-0.000118704      11.5181      124.958 
1.57788e-05      2.90762     -97.9063 
-1.57575e-05      11.0600      134.415 
1.57576e-05      6.98522     -26.3448 
-1.57700e-05      8.82908      27.3796 
0.000103110      13.5047     -42.4801 
-0.000162463      11.8411      30.3317 
7.44327e-05      9.63740      168.994 
-1.56642e-05      6.23584      108.319 
-8.96981e-05      9.22619      14.3052 
-0.000117725      9.03230      149.969 
-5.99217e-05      10.5299      21.1539 
6.03495e-05      10.4735     -77.8737 
1.56576e-05      11.6416     -144.862 
-7.41620e-05      7.71998     -90.0000 
4.55454e-05      12.7297     -131.052 
-5.86526e-05      9.33227     -52.6620 
-1.55810e-05      13.8572      47.3986 
3.01479e-05      12.8694      45.2504 
-6.05974e-05      9.95481      153.642 
-1.55193e-05      3.15229      50.1473 
-1.55282e-05      7.17999     -125.020 
7.41673e-05      10.1956      146.683 
3.05412e-05      13.3097     -137.801 
8.74911e-05      8.98665      159.546 
-1.54249e-05      3.38021     -81.1504 
-4.49792e-05      7.22339     -114.363 
1.54213e-05      8.48615     -87.8412 
-1.54102e-05      7.75010     -145.405 
5.89577e-05      8.31111      121.318 
1.53944e-05      6.52207      91.4043 
-2.96893e-05      8.71178     -116.742 
1.53800e-05      7.26314      62.8022 
-4.43076e-05      11.5327     -56.8869 
4.50529e-05      8.85984     -89.8690 
0.000101322      11.6250     -144.805 
-5.90594e-05      8.08512      102.282 
-7.29768e-05      9.96356      151.070 
0.000159207      12.0203     -45.0000 
5.89769e-05      8.16094     -9.02494 
-2.92970e-05      11.9737     -131.413 
5.86913e-05      12.5797     -40.6821 
4.38455e-05      11.3818     -141.279 
7.22213e-05      8.87296     -103.160 
-0.000116444      10.3241     -8.13128 
-1.52228e-05      10.1200     -90.4546 
1.52261e-05      9.66435      157.363 
0.000115476      12.2126      127.413 
1.51871e-05      5.90887     -97.3913 
-0.000115722      9.41218      85.2485 
7.32263e-05      7.80605      55.3338 
4.37446e-05      13.3713     -130.815 
5.83116e-05      9.94475     -74.0089 
4.34326e-05      9.29109      98.0411 
-1.50961e-05      10.4845     -111.721 
1.50959e-05      7.51214     -34.9156 
1.51057e-05      9.87453      72.5551 
-2.95624e-05      3.38339     -80.8113 
8.68582e-05      7.45636     -71.2259 
7.23680e-05      12.0990      125.583 
-8.66492e-05      14.0888      43.7354 
1.50585e-05      12.9873      43.5017 
8.64402e-05      6.72018     -7.69400 
-5.77359e-05      6.21732      108.376 
5.83392e-05      10.6708      162.551 
4.37254e-05      8.60308      46.8838 
-2.94999e-05      9.98017     -89.8837 
-1.49804e-05      6.16795      46.5775 
2.90670e-05      10.9420     -35.0252 
-7.25707e-05      14.0208      46.6763 
7.14631e-05      12.9331     -127.650 
-1.49851e-05      12.1667     -140.739 
-7.21573e-05      9.48611     -102.541 
-5.77304e-05      8.90951     -154.471 
5.78017e-05      9.59173      41.5368 
2.93118e-05      9.16340      103.762 
0.000129518      13.3247     -137.860 
0.000159518      10.5667     -131.779 
-5.82721e-05      7.20914     -39.0305 
-1.49047e-05      8.02958      155.732 
-5.80041e-05      11.2373      37.6236 
5.80694e-05      8.38462      41.9056 
-1.49018e-05      6.60722      146.981 
2.92921e-05      7.23973      180.000 
8.59074e-05      10.0085      177.594 
8.59532e-05      9.69085      157.299 
2.90879e-05      9.39012      118.912 
8.55505e-05      12.5648     -53.8056 
2.93193e-05      10.4839      119.106 
2.89511e-05      8.48693     -87.7045 
-2.93040e-05      11.4572     -128.549 
2.87478e-05      9.94905     -35.0961 
2.87942e-05      11.5774     -30.0632 
-2.90010e-05      10.7344     -122.832 
1.47297e-05      8.98321      129.217 
0.000143088      10.7649      23.6596 
-0.000114325      10.7962      21.8598 
-2.89335e-05      8.33591      71.3905 
4.28839e-05      10.3765      75.3729 
1.47127e-05      8.02076     -179.287 
7.13686e-05      10.4624      112.004 
-2.86738e-05      12.1510     -140.679 
1.47044e-05      11.2825     -42.4852 
7.13815e-05      9.36514     -178.163 
1.46835e-05      10.8439      144.611 
5.70515e-05      4.02578     -112.488 
5.71491e-05      12.7215     -141.382 
4.29542e-05      7.15620      62.7202 
-4.30862e-05      11.8097     -42.1182 
-2.85204e-05      9.75593      114.464 
-5.70528e-05      10.5033     -111.681 
-1.46281e-05      6.31928      118.753 
-4.24964e-05      9.91051      153.641 
-5.65080e-05      9.75728     -3.40812 
-4.31246e-05      12.2737      140.423 
-4.27098e-05      9.96979      17.2730 
1.45994e-05      12.4181      125.097 
-5.68039e-05      10.1800      68.3233 
-4.27491e-05      10.1005     -90.4555 
1.45397e-05      12.2689     -37.4502 
1.45464e-05      9.96028     -35.1879 
2.89075e-05      8.53536     -152.052 
4.27361e-05      9.96804      167.721 
-2.87486e-05      8.71658     -99.3739 
7.06244e-05      11.9954      46.2166 
-1.44927e-05      7.79035     -139.684 
-1.44871e-05      13.8721      47.4553 
-1.44908e-05      7.85227     -148.008 
5.68577e-05      12.6834     -39.6880 
-7.13778e-05      7.15894      66.8022 
4.23835e-05      12.0529      127.518 
-4.27079e-05      13.3078     -50.3053 
-7.04672e-05      11.3772      136.996 
-1.44183e-05      8.77290      83.7193 
-2.83545e-05      13.0118     -49.6757 
-1.44228e-05      11.6075     -132.487 
-5.65103e-05      10.6149     -57.7761 
8.45795e-05      8.98028      173.349 
-5.64828e-05      11.2293     -114.969 
1.44439e-05      8.85991     -89.7428 
-2.84556e-05      10.5092     -50.2520 
-7.04813e-05      10.9785     -21.7061 
-4.24844e-05      9.93733      153.592 
1.43589e-05      13.3132     -40.9204 
-1.43499e-05      6.32905      118.914 
-4.23305e-05      7.32283      148.740 
5.63269e-05      10.4692     -77.9821 
-1.43456e-05      10.7646     -18.2985 
4.23016e-05      10.4169     -71.5298 
2.83486e-05      10.2034      32.3506 
4.22539e-05      3.34871     -97.5454 
4.28909e-05      10.3189      132.566 
-4.24673e-05      9.97503     -19.1969 
-2.82972e-05      10.9386     -121.161 
1.43033e-05      12.4597      44.8048 
2.82969e-05      12.7430     -131.120 
2.83139e-05      5.92640     -97.1718 
-5.62972e-05      13.7780     -133.707 
-5.61162e-05      14.1846     -45.0579 
-2.83123e-05      12.0899     -144.154 
-2.80422e-05      7.40505      137.735 
2.84125e-05      10.5513     -19.6050 
4.20672e-05      9.47426     -14.7990 
1.42366e-05      10.8274      144.549 
-1.42099e-05      12.2808     -138.235 
-2.81370e-05      13.3269     -136.581 
-5.61776e-05      13.9235      46.8628 
1.41890e-05      6.11799      130.094 
2.80076e-05      10.4937      119.203 
4.18733e-05      11.1695     -65.4563 
4.19386e-05      9.27304     -17.5728 
1.41895e-05      12.3122      143.521 
4.18938e-05      6.51216      33.9849 
-1.41500e-05      9.39676      37.6487 
2.80744e-05      12.4065      125.020 
2.81228e-05      9.47512     -73.8227 
-4.18813e-05      10.4480     -62.6491 
-1.41115e-05      9.46707     -102.567 
-2.80161e-05      7.22431     -38.9331 
-2.79430e-05      14.0174     -43.9003 
7.43783e-05      11.0236     -65.1096 
1.40081e-05      8.86002     -89.6118 
-1.40280e-05      11.8534      49.1072 
1.39775e-05      7.59357      141.951 
-1.39678e-05      3.13501      49.3972 
-4.16892e-05      12.7484      53.2920 
2.78102e-05      11.1690      156.463 
-1.39449e-05      11.4446     -128.470 
1.39317e-05      11.7248     -126.049 
-4.19902e-05      8.36387     -47.2287 
1.39403e-05      7.44407      124.158 
-2.77213e-05      9.20655      14.3364 
2.77283e-05      9.99593      169.861 
1.39158e-05      11.0557     -41.1859 
2.76889e-05      13.3867     -130.758 
1.39044e-05      10.3041     -72.3739 
-1.39171e-05      8.15485      103.186 
1.39103e-05      9.96982     -73.9290 
-1.39058e-05      11.2527      37.5630 
-1.38489e-05      6.18190      46.4411 
7.21550e-05      8.56241     -152.000 
-1.38607e-05      4.89635     -53.9713 
-1.38624e-05      3.56506      68.6196 
-1.38435e-05      5.64646     -22.9326 
1.38275e-05      12.6397     -39.7372 
-1.38371e-05      11.7661      149.903 
-1.38303e-05      11.8190     -47.4006 
-1.38434e-05      10.6228     -66.4772 
-1.37828e-05      7.72001     -90.1504 
7.15654e-05      7.57822      141.860 
-1.37809e-05      10.6156      138.743 
1.38209e-05      11.7367     -126.129 
-1.38005e-05      12.6781      131.739 
-1.37934e-05      10.1004     -90.3405 
-1.38365e-05      11.9746      49.6078 
-1.37726e-05      9.94337     -50.3860 
-1.69648e-05      11.8483     -42.4692 
-0.000151176      13.3130     -136.644 
0.000107980      9.56910      56.9430 
6.30413e-05      10.5139      70.3222 
-0.000106192      11.8351     -42.3995 
7.72414e-05      9.89582      82.9176 
-9.15286e-05      10.6597     -155.504 
3.19748e-05      11.8081      32.1297 
8.95129e-05      9.77490     -122.975 
-4.55501e-05      11.8339     -42.5330 
1.60583e-05      10.5532     -131.697 
8.98762e-05      10.2054      172.569 
3.00361e-05      8.58915     -151.942 
7.35523e-05      10.7204      135.604 
-7.35978e-05      10.2653      158.034 
7.27757e-05      11.7916      32.1801 
5.89286e-05      11.4425      120.691 
2.91419e-05      11.4733      30.9483 
2.92164e-05      9.30345      57.1956 
-5.78541e-05      11.2567     -28.2050 
5.77500e-05      13.5362     -133.983 
-2.91891e-05      10.1594     -81.9669 
-1.48205e-05      7.51636      5.64912 
2.88416e-05      14.0154      134.482 
-4.27543e-05      9.33769     -13.5002 
4.31543e-05      6.56530      108.106 
-2.87648e-05      9.18390      83.2478 
1.45781e-05      8.79810     -59.2374 
-1.45409e-05      10.4633      107.121 
2.85585e-05      11.1936      40.4351 
2.85998e-05      11.9244     -36.5432 
2.86613e-05      12.1350     -135.802 
2.86323e-05      11.1211     -59.8849 
-2.86366e-05      8.37474     -136.354 
4.38057e-05      9.89825      82.8055 
-2.82076e-05      7.93571      133.674 
-2.82563e-05      7.35336     -68.4592 
-1.43256e-05      8.15657     -22.7930 
-2.82882e-05      6.56290      50.4419 
2.80523e-05      9.48186      68.4663 
-1.41491e-05      7.86053      90.4376 
-1.41889e-05      8.08946      102.422 
1.41615e-05      10.9674      115.490 
-1.41206e-05      10.6320      32.1657 
1.40975e-05      12.3878     -132.317 
1.39989e-05      7.12159      108.842 
1.39931e-05      11.3438     -56.1438 
1.39823e-05      13.7602      45.0597 
-1.39600e-05      12.7766      43.1604 
1.39184e-05      12.9892     -136.870 
! Tentative model.
! Flux (Jy) Radius (mas)  Theta (deg)  Major FWHM (mas)  Axial ratio   Phi (deg) T \
! Freq (Hz)     SpecIndex
1.44758e-05      11.0156     -65.2031 
