! Center RA: 12 21 31.69052,  Dec: +28 13 58.50011 (2000.0)
! Established model.
! Flux (Jy) Radius (mas)  Theta (deg)  Major FWHM (mas)  Axial ratio   Phi (deg) T \
! Freq (Hz)     SpecIndex
  0.190524    0.0720098      146.476 
  0.135143    0.0633577      161.350 
 0.0362798    0.0896014      153.650 
 0.0105439     0.280627      94.1402 
0.00130291     0.144435      146.227 
 0.0279911    0.0446338      153.004 
 0.0241770     0.156126      140.265 
 0.0257064     0.282706      98.0871 
 0.0180755    0.0202604      180.000 
 0.0422851     0.262662      98.7088 
 0.0125123     0.128090      141.183 
0.00774072     0.100252      143.216 
0.00166131     0.141141      135.000 
 0.0155088     0.286260      102.105 
 0.0104460     0.169793      135.000 
0.000715183    0.0397705      180.000 
0.00743566     0.178866      116.673 
 0.0106712     0.161670      119.778 
0.00566306     0.310708      104.976 
0.00209851     0.144435      123.773 
0.00384273     0.334882      107.339 
0.00238800     0.354273      106.362 
0.00595911     0.379669      108.435 
 0.0169200    0.0202604     -90.0000 
0.00266966     0.170734      110.586 
0.00148918     0.398226      107.547 
0.00537092     0.189835      108.435 
0.00550889     0.404795      110.283 
0.00595022     0.423858      109.333 
0.00444168     0.184432      102.453 
0.00196642     0.437032      105.945 
0.00452903     0.481892      94.7340 
0.00111150     0.204262      101.227 
 0.0152254    0.0397705     -90.0000 
0.00741036     0.360505      109.453 
0.00428284     0.501338      94.5500 
0.00182722     0.184676      130.551 
0.000546384     0.386554      111.285 
0.00406626     0.784114      109.337 
0.00529837     0.500168      92.3215 
0.00152351     0.199903      143.087 
0.000648750     0.181229      96.4188 
0.00381284     0.810035      110.214 
0.00188135     0.216445      146.310 
0.00298609    0.0446338     -63.0042 
0.000193086     0.679409      103.606 
0.000364264     0.341468      110.586 
0.00221044     0.651243      100.624 
0.000364949     0.180093      90.0000 
0.000334734     0.159832      90.0000 
0.000646376     0.835434      111.056 
0.00102623     0.233573      149.068 
0.000157117     0.161111      82.7757 
0.000156206     0.560155      124.797 
0.00348014     0.659734      104.020 
0.000409503     0.197181      114.029 
0.00341272     0.866617      108.843 
0.00244056     0.188432      121.981 
0.00264106    0.0802914     -90.0000 
0.00216862     0.655281      102.365 
0.00241324     0.873371      110.101 
0.000433983     0.635505      102.756 
0.000703986     0.198446      135.000 
0.000526536     0.582967      120.989 
0.000398334    0.0633577     -71.3505 
0.000267880     0.201375      95.7743 
0.00141461    0.0828082     -75.8378 
0.000487133     0.200353      90.0000 
0.000224490     0.593248      122.605 
0.000446587     0.576909      123.649 
0.000746412     0.880267      111.293 
0.000112343     0.201375      84.2257 
0.000640769     0.499758      90.0000 
0.000317553     0.250509      151.362 
0.00202544    0.0720098     -56.4755 
0.000607461     0.891718      109.670 
0.000762690     0.500168      87.6785 
0.000748568     0.278155      158.974 
0.000197540     0.588377      125.291 
0.000747203      1.20797      109.335 
0.000189131     0.204262      78.7726 
0.000708289     0.604406      124.223 
0.000612887     0.945882      103.441 
0.000595671     0.671167      100.305 
0.000174729     0.209153      73.3204 
0.00168730      1.21483      110.237 
8.75930e-05     0.480675      87.5843 
8.65123e-05     0.501338      85.4500 
0.000979315     0.340220     -139.741 
0.000636749     0.481892      85.2660 
0.000163974     0.297155      160.375 
0.000314406     0.215843      68.1616 
0.00182659     0.600310      126.870 
0.00120878     0.616029      125.781 
0.000577278     0.941538      102.286 
0.000365992     0.310708      165.024 
0.000968184    0.0848966     -45.0000 
0.000739536     0.483985      82.8750 
0.000212396     0.223834      63.5208 
0.00409217      4.90383      110.279 
0.000764258     0.329594      165.900 
0.000323547     0.372066      53.7772 
0.000259354      1.22172      111.096 
0.00166069     0.355922     -141.850 
0.000369498      1.23386      109.912 
0.000178173     0.861421      111.783 
0.000120447     0.961344      102.029 
0.000717771     0.384386      51.3402 
0.000451887     0.486913      80.5086 
0.000668018      1.24064      110.759 
0.000518338     0.957327      100.843 
0.00140958     0.100252     -36.7841 
0.000166117      7.54747      112.759 
0.000442752      7.75285      110.540 
5.49605e-05     0.667840      98.5944 
0.000315055      7.55533      112.900 
0.000157260     0.240977      4.82291 
0.000203997     0.708758      106.420 
0.00182742     0.345185      169.985 
0.00113906     0.470689      77.7585 
0.000591086      1.24796      111.629 
0.00228219      7.74577      110.399 
0.00120844      7.54529      113.100 
0.000650604     0.260423      4.46202 
0.00227195      4.70113      119.290 
4.83596e-05     0.682496      95.0461 
0.000564221     0.396866      49.1402 
9.29090e-05     0.714519      107.921 
0.000524275      1.25557      112.488 
8.75718e-05     0.681013      93.3479 
0.000353930     0.740145      108.931 
0.000878852      1.26317      113.306 
0.000114223     0.700111      90.0000 
0.000480556     0.972963      99.4551 
0.00131634     0.475398      75.3715 
0.00232641     0.384386     -141.340 
0.00193343      7.55297      113.236 
0.000132282     0.720656      88.3890 
0.000715647      7.60904      109.339 
0.000197423     0.395830      45.0000 
0.00186072      7.21983      96.0436 
0.00127118      4.90033      113.318 
0.000503876      1.27132      114.144 
0.000874168      9.65257      111.517 
6.14290e-05     0.746703      110.347 
0.000583946     0.410407      47.0005 
0.000261564      1.26660      105.568 
5.88061e-05     0.721469      86.8400 
5.76804e-05     0.259634      0.00000 
0.00131951      9.60462      112.397 
2.79522e-05     0.765732      109.820 
0.000344557     0.742313      85.3614 
0.00112684     0.735975      47.2312 
0.00139264      4.89710      110.065 
0.000343419     0.279894      0.00000 
0.000517850     0.772836      111.233 
0.000391894      1.27974      114.972 
0.00155587      4.71108      119.505 
0.00146790      7.60260      109.200 
6.64170e-05      1.29091      106.202 
0.000363219      1.08000      91.0749 
0.000511746      1.28810      115.759 
9.95044e-05     0.791053      110.721 
2.11067e-05      1.28540      105.334 
0.000100959      7.49167      114.442 
0.00116833     0.444008     -54.2147 
0.000355125      1.31037      105.954 
0.000278764     0.410407      42.9995 
1.97872e-05      1.24172      104.918 
1.96379e-05     0.349279      166.710 
0.00164024      9.79771      111.432 
0.000385475      7.48362      114.306 
0.00100528     0.749880      46.0947 
3.62142e-05      1.22288      105.153 
0.00115518      7.21773      95.8837 
0.000176267      7.74077      110.728 
4.84371e-05      1.20333      105.406 
0.000282423     0.612215      128.331 
0.000491968      4.71324      120.047 
5.74411e-05      1.19830      104.506 
0.000406247      1.29703      116.565 
8.70491e-05      1.17870      104.753 
5.98455e-05      1.08054      92.1093 
5.10574e-05     0.459977     -145.636 
-0.00174374      7.32068      111.307 
-0.000860469     0.916147      53.8622 
0.000528555      7.58418      109.249 
6.93936e-05      9.59720      112.290 
0.000107480     0.744225      83.8065 
-0.000713738     0.320306     -93.6266 
0.000314887     0.368782     -139.373 
0.000156954      1.31587      106.771 
8.68315e-05      4.72072      119.711 
0.000143212      4.74055      121.544 
0.000391198      7.45382      112.230 
4.47815e-05      1.15984      104.998 
4.21792e-05      1.14028      105.262 
0.000107295      4.75118      121.752 
7.92415e-05      1.13512      104.275 
0.00144058     0.750414      48.2428 
0.000259550      7.43577      112.287 
0.000634547     0.411965      112.829 
0.000560225     0.353651     -137.236 
-0.000784056     0.300155     -90.0000 
0.000281389      1.11549      104.532 
0.000263351     0.766666      82.5202 
-0.000871969     0.671167      26.5651 
0.000335678      4.75509      122.288 
0.000757780      7.42811      112.142 
-0.000899924     0.904347      54.8989 
0.000162020      1.32186      107.612 
-0.000551239      4.74349      108.435 
0.000306674      7.23998      96.0267 
0.000388164      4.89019      109.842 
0.000106352     0.424884      41.2050 
0.000118685     0.113549     -45.0000 
8.03909e-06     0.438632      114.241 
-0.000619638     0.227911     -164.728 
7.90943e-06     0.319665      0.00000 
1.50604e-05     0.340529     -3.41094 
1.49002e-05     0.440329      39.4680 
-0.000279913      1.21490      122.924 
0.000200915     0.339586     -135.000 
0.000221209      7.40935      112.201 
0.000178000     0.381773     -174.020 
0.000134067      1.30622      117.360 
-7.05034e-05      4.52996      119.057 
0.00334562      6.96707     -113.694 
0.00231277      10.1782     -162.738 
0.00197248      4.74093     -149.864 
0.00248100      2.96000      72.3046 
0.000990811      4.35209      52.6579 
0.000868317      11.5719     -129.881 
-0.00151821      5.47174      11.5981 
0.00140231      4.36822      52.8191 
0.00136173      8.88234     -1.29249 
0.00164501      11.5594     -129.807 
0.00105885      11.0230      64.8759 
-0.00121161      6.53727      149.275 
-0.000757667      10.3826      48.2021 
0.000737691      7.00934      51.9523 
-0.000869792      6.77019      23.6897 
-0.00101725      10.6999     -143.128 
-0.00130041      8.44969     -71.2207 
-0.000312697      6.07208     -67.7423 
0.00113885      8.90192     -73.1536 
0.00100237      9.24621     -7.83155 
-0.000590028      6.17777      78.8006 
0.000606037      6.76357     -99.0192 
-0.00113186      6.21005     -144.566 
-0.000842426      11.0666      121.853 
0.00111984      11.6016     -48.2852 
-0.000986914      10.1205      122.245 
-0.000153114      8.96909     -149.146 
0.00145386      7.34119      24.1207 
-0.000564543      6.79294     -108.011 
-0.000151621      10.3972      48.2737 
0.00109799      10.5033     -111.681 
-0.000964823      10.1867     -130.381 
-0.000817474      9.04524     -4.31048 
0.000569933      9.42201     -148.808 
-0.000550398      8.97949     -149.035 
0.000958070      12.2719     -130.439 
-0.000146903      6.06443     -67.9195 
-0.000955246      6.01126     -106.625 
0.000817323      7.63771      106.583 
0.000819580      8.35526     -18.9996 
0.000807730      8.49431     -39.6487 
-0.000684480      6.03028     -69.8220 
0.00157552      11.9507      49.8877 
-0.000408043      10.0371     -168.621 
0.000666385      11.2776     -136.941 
-0.000667935      3.04667      7.54335 
0.000278506      3.14196      88.1797 
-0.000141727      13.2866     -40.7884 
0.000672015      5.34590     -76.5919 
-0.000536675      12.1054     -131.114 
0.000532086      9.54640      152.146 
0.000662614      9.10907      172.935 
0.000266840      8.00699      154.713 
0.000266823      6.76042     -98.8496 
0.000389479      1.79178      123.158 
0.000522066      9.26987      48.8499 
0.000654489      13.7952      133.179 
0.000394247      2.96623      71.9317 
0.000649006      4.09210      50.5509 
-0.000263693      13.2719     -40.8434 
-0.000387446      4.11808      172.187 
-0.000519772      5.06128     -1.35928 
0.000390008      6.13628      109.614 
0.000386691      9.80817      36.5446 
0.000390029      8.83780     -152.797 
0.000257836      9.01388      56.3113 
-0.000258642      6.52050      149.188 
0.000257137      8.66780     -29.2834 
0.000129703      8.90749     -80.3052 
-0.000128699      11.0721     -123.431 
-0.000252561      8.58707      146.495 
0.000252180      9.43934     -148.871 
-0.00117616      7.44785      92.6159 
0.000250939      8.38678     -44.3221 
-0.000126215      6.78670     -107.848 
-0.000126105      6.05403     -67.6724 
0.000125774      7.42463     -94.6376 
0.000125262      8.92131     -73.1914 
0.000125274      3.37213     -152.831 
0.000124841      11.4446     -147.200 
-0.000124540      7.98867      19.2961 
0.000123913      3.71270      71.4625 
0.000123917      8.28435      50.5832 
-0.000658559      4.46400     -74.4078 
-0.000920199      4.45072     -74.0891 
0.000829583      3.70001      72.0574 
-0.000236495      3.89292     -69.2384 
-0.000322698      3.88833     -68.5846 
-0.000532410      10.5322      24.8122 
-0.000638350      6.07637     -9.08776 
0.000324777      9.19637      60.7034 
-0.000600762      10.0641     -70.3775 
-0.000709391      10.6202      109.357 
0.00102178      9.72458     -149.743 
-0.000489533      9.13778     -120.661 
-0.000746710      9.23582      176.646 
-0.000182227      4.46948     -74.1577 
-0.00134018      7.84826      127.334 
-0.000408481      9.33440     -119.805 
0.000554399      5.95427      156.019 
0.000749627      2.76102      42.3564 
0.000106691      7.61825      148.854 
0.000482809      8.07569      157.116 
0.000206281      11.5714      125.501 
0.00141363      8.03506      154.967 
0.00112484      12.6528      48.5222 
0.000813493      3.02038     -90.3843 
0.000885166      7.60091      148.775 
-0.000101330      8.67709      55.1363 
0.000649990      7.80780      22.7575 
0.000100319      6.82100     0.838353 
-0.000291041      10.5585      42.6988 
-0.000544085      11.2586      135.864 
0.000281983      3.69405      72.3453 
0.000617815      1.94809     -148.434 
0.000510642      9.20351      60.8728 
0.00104007      11.5873      125.445 
-0.00111457      6.07960     -9.27631 
-9.74933e-05      4.51751      54.5464 
-0.000986785      13.1877     -131.743 
0.000180320      10.8781     -34.3609 
-0.000356182      8.20329     -170.884 
0.000274588      6.80074     0.840851 
0.000510142      5.84797     -177.058 
-0.000421356      9.87088     -6.86786 
0.00210943      12.1444     -32.6944 
-0.000539375      9.37656      143.936 
-9.27282e-05      3.88522     -67.9232 
0.00122510      3.85867     -19.3758 
-0.000335091      4.52885      54.3453 
-0.000501492      8.38202      33.1239 
-0.000474393      9.35199     -119.743 
0.000170257      8.78786      171.891 
-0.000251359      12.9678     -132.373 
-9.09699e-05      8.64950      55.1725 
0.000361012      5.97805      175.587 
-0.000309725      9.11003     -120.617 
-0.000334800      9.32735      137.347 
-0.000321184      9.62780     -7.75813 
-0.000168720      10.5138      24.8585 
-0.000172743      10.3754     -104.171 
-8.75019e-05      6.70424     -161.567 
-0.000235899      10.5866      42.7020 
8.64937e-05      3.59711      138.154 
0.000213996      8.79074      171.760 
-0.000468339      10.7072      55.2708 
-0.00114899      10.6270      109.460 
0.000379952      6.06565     -150.136 
0.000853114      5.43757      119.770 
-0.000315338      9.86589     -30.0460 
0.000510218      9.19403      60.9790 
-0.00103656      9.52205      23.3871 
-0.000163245      9.89100     -6.85382 
-0.000758240      11.2585      136.007 
0.000648275      3.35712     -81.4388 
-8.27324e-05      10.5734      42.6244 
-0.000224639      11.2764      38.3746 
-0.000973863      10.0576     -70.4822 
0.000626272      8.04365      154.836 
-0.000240407      9.02068      31.3986 
-8.20403e-05      6.68503     -161.512 
0.000458806      13.8214      46.4651 
0.000378882      7.82649      22.7002 
-0.000293250      5.77059      45.5637 
-8.15818e-05      10.4932      53.9160 
0.000237387      4.06417      50.5967 
-0.000436697      10.3804     -104.279 
0.000304598      10.9743      44.5568 
-8.09839e-05      3.89259     -67.6571 
0.000148265      8.37442     -18.9545 
8.03453e-05      10.3557     -125.408 
0.000156498      3.36019     -81.0972 
-0.000368274      11.5418      39.2323 
7.89967e-05      13.0716      133.514 
7.87057e-05      6.80048     0.676491 
0.000270413      6.08660      147.619 
-0.000510387      6.05636     -9.11804 
0.000355577      9.61677      98.1282 
0.000379196      11.0820     -116.471 
-0.000146474      7.26497      131.990 
-7.69671e-05      6.76635      139.435 
0.000476318      9.59601      151.086 
0.000599131      10.6077     -124.707 
-0.000147113      8.77115     -46.4802 
-0.000289273      6.80413      133.686 
-0.000218686      9.00403      31.4633 
0.000266768      9.45767      3.51622 
0.000554684      8.30460     -162.043 
7.55401e-05      2.74741      42.0442 
0.000147917      10.6347      73.9513 
-0.000549486      12.4909     -139.090 
-0.000142628      10.4649      53.9403 
-0.000787767      9.93980     -143.015 
7.44663e-05      9.86173      127.916 
-0.000276047      8.87722      141.218 
0.000733238      4.07706      50.3767 
0.000213992      7.58424      148.699 
-0.000321332      9.60846     -7.77383 
-0.000535992      8.79200      69.2139 
7.29680e-05      8.63742     -159.676 
-0.000141319      9.21560      176.639 
0.000206136      11.0021     -137.872 
0.000326278      9.87772      127.844 
-0.000562930      8.39900      33.0483 
0.000419024      10.2667     -151.239 
-7.16639e-05      13.3207      140.238 
0.000311845      10.1256      18.1839 
-0.000264671      5.99226     -69.6883 
-0.000137893      13.0521      39.7145 
0.00108901      13.8496      46.4643 
-6.98370e-05      8.81312     -4.94798 
-0.000761112      12.5237     -41.6335 
0.000898559      7.34324      150.640 
0.000262419      10.6097      74.0262 
-6.93208e-05      3.88164     -67.2668 
6.91947e-05      10.2838     -151.292 
-0.000134082      11.2726      135.933 
0.000427145      11.6589     -133.195 
-0.000256412      4.81301      158.555 
-0.00109534      8.46258     -70.9658 
-0.000122331      9.85614     -29.9478 
-0.000135123      8.91672     -176.526 
0.000360577      8.70732     -35.3706 
-0.000451358      9.28911     -112.534 
-0.000188422      8.61589      93.4602 
0.000388210      3.35412     -152.673 
0.000531032      11.0910     -116.565 
-6.73759e-05      12.1648     -132.002 
0.000430172      5.39311      78.2304 
-0.000542798      9.01462      31.5731 
-0.000249483      10.6394      109.321 
0.000470695      9.08128      43.9287 
0.000521857      7.59439      148.573 
-0.000185775      12.9397     -132.370 
0.000252814      9.07942     -173.422 
6.65075e-05      10.9467      44.5556 
-0.000126671      9.29923      137.351 
-0.000462653      5.29178     -43.1613 
0.000453007      7.84449      22.6452 
0.000130672      5.50538      106.461 
-0.000239800      10.0563     -14.8648 
-0.00137985      8.93740     -176.409 
-0.000128589      8.83256     -4.93706 
-6.55840e-05      10.0773     -99.4806 
-0.000458553      13.0671      39.6598 
-0.000241778      13.3078      140.305 
-0.000183642      8.66817     -165.706 
0.000456658      10.2771      47.5212 
0.000581867      8.25616      48.0430 
6.43055e-05      8.65642     -159.722 
0.000122152      8.32528      129.540 
-0.000441062      9.34232     -119.639 
-0.000585357      11.3038      38.3907 
0.000298683      10.8951      146.834 
-0.000803480      10.1627     -93.8357 
-0.000331177      12.1629     -132.134 
-0.000176799      7.75434     -168.547 
-0.000178162      3.17441     -48.5745 
6.30785e-05      8.28477      48.0325 
6.30511e-05      5.96253      155.841 
0.000557948      5.49968      106.259 
6.22358e-05      13.0850      133.576 
-0.000282700      12.3783      141.295 
0.00107700      7.30752     -63.8559 
0.000598700      8.91804      12.6961 
-0.000120387      11.9603     -148.887 
-0.000241220      13.2515     -45.3074 
-0.00281726      14.3829     -134.607 
-0.000910750      10.9444      139.003 
-0.000554596      3.72553     -109.117 
-0.000669878      11.3206     -147.993 
-0.000177374      12.3631      141.239 
0.000219567      11.7255     -51.3705 
0.000324998      11.0171     -137.943 
0.000322912      7.57711      148.493 
0.000114968      11.5760      125.366 
-0.000371976      7.68983     -122.572 
0.000113987      3.72555      71.8570 
-0.000113773      8.89563      141.480 
-0.000317754      9.11572      8.32554 
-0.000216595      10.6461      109.423 
0.000624015      8.63779     -57.1921 
0.000114911      10.0331     -106.087 
0.000333119      9.06003     -173.408 
5.84756e-05      10.2837     -54.5785 
0.000114694      9.58660      151.188 
-5.79065e-05      11.9660      141.311 
-0.00224943      13.2657     -45.2452 
-5.72083e-05      5.99932     -69.5069 
5.70152e-05      13.1137      133.579 
0.000110441      10.5648      64.5507 
-0.000156703      6.05371     -50.6336 
-5.68659e-05      7.19519     -34.3546 
-0.000347775      11.9498     -148.970 
-5.65545e-05      8.85274     -4.92578 
0.000338556      5.42754      119.585 
0.000159440      11.9232      49.8989 
-0.000109891      4.76886      158.599 
-0.000164298      13.1742     -131.677 
5.60366e-05      10.5793      74.2031 
-0.000108401      11.9696      141.445 
-5.58333e-05      6.91711      133.712 
0.000107802      9.98175     -3.79316 
0.000160759      10.2821     -23.6241 
-0.000246751      9.14813     -120.770 
-0.00105598      8.05202     -70.7089 
0.000255775      9.10887      43.9319 
-0.000291638      9.04186      31.6178 
5.44047e-05      5.25545      171.684 
0.000535964      9.61375      151.144 
5.41728e-05      2.07376     -6.64928 
-0.000255555      7.95789     -109.528 
-0.000292410      14.3403      135.339 
0.000803759      10.9058      146.748 
0.000353982      11.0280     -53.1098 
0.000396051      5.79420      128.416 
5.36383e-05      4.76590     -172.036 
-0.000104495      11.1813      138.698 
0.000332181      9.88970      127.933 
0.00243975      10.8424     -19.5034 
0.000150830      10.6192     -124.797 
-0.000101578      6.01830     -69.5744 
0.000149898      10.0385     -106.194 
0.000104146      10.1388      18.0434 
-5.29011e-05      10.3515     -104.089 
-0.000104238      9.58839     -7.79021 
0.000102049      13.1276      133.643 
-0.000536206      12.3905      141.225 
-0.000152590      6.88900      133.702 
5.25243e-05      8.01670      154.905 
-0.000247096      8.38797      32.9323 
0.000234022      7.17886     -82.6373 
-0.000102915      9.05210      31.7229 
-0.000145827      10.0375     -14.8933 
-0.000493928      1.91624      103.889 
-0.000124289      7.49463     -29.2290 
-0.000101754      12.9260     -132.304 
-0.000149086      9.95599     -143.085 
5.18285e-05      6.01928      175.424 
0.000538628      11.5120     -53.5484 
-5.16724e-05      9.11818      31.9099 
-0.000446393      5.96952      61.3763 
0.000334761      9.58845     -154.023 
0.000102217      4.65132     -58.3562 
0.000233032      10.5565      64.6463 
0.000144562      11.0167     -126.288 
-0.000146665      2.63819     -160.060 
-0.000291788      13.1894     -131.619 
-0.000239287      10.2902      161.532 
0.000195568      9.03991     -173.394 
-0.000191562      8.91481      141.744 
0.000274959      5.23540      171.652 
-5.10299e-05      2.94233     -50.7856 
0.000908213      13.8635      46.4036 
0.000306083      10.0020     -3.78548 
0.000239465      3.33783     -81.3890 
-0.000242612      12.4880     -44.6762 
0.000187752      10.9323      44.6301 
-9.68239e-05      10.6015      42.6278 
-9.34284e-05      10.9576      137.662 
-0.00104083      2.92956     -51.0927 
0.000530537      11.6308     -133.188 
-0.000376592      7.46742     -29.1743 
9.85710e-05      9.60435      151.246 
0.000213766      10.2899     -23.7236 
-0.000463523      10.0580     -99.4989 
-0.000307380      5.32187     -153.919 
-4.96147e-05      4.66445      24.0374 
-9.78359e-05      13.2824      140.437 
4.94231e-05      4.91002     -164.887 
4.93051e-05      10.2573     -151.335 
0.000145938      8.65483     -57.2648 
0.000180140      8.69081     -35.4480 
0.000309551      10.3078     -23.6800 
4.89912e-05      10.1196      18.0789 
0.000229443      13.0672      44.8767 
0.000467578      4.64073     -58.5691 
4.84517e-05      9.28841     -79.0795 
4.83172e-05      6.03948      175.439 
0.000778586      11.1211     -30.1151 
0.000357515      11.0157     -137.794 
9.45540e-05      12.2967      126.069 
-9.39602e-05      7.39232      58.1605 
4.81566e-05      10.9285     -36.3687 
-4.80354e-05      8.78483      69.3374 
-0.000319453      5.95875     -47.3118 
9.45834e-05      13.1411      133.704 
0.000265681      5.49425      106.064 
-9.33554e-05      9.56569     -7.69088 
-0.000479355      8.44413     -70.9226 
-0.000853298      13.1419      140.496 
4.75416e-05      4.90477     -165.115 
-4.73326e-05      11.4161     -37.3128 
-4.73646e-05      2.64516     -159.648 
9.23882e-05      10.9165     -36.2831 
-8.89866e-05      13.0547      39.5939 
0.000514567      8.64198      72.9071 
-9.24607e-05      12.1341      145.000 
-4.71467e-05      7.75049     -168.688 
4.71862e-05      7.54320      22.2788 
-9.14385e-05      11.1966      138.766 
9.17103e-05      5.59449     -102.597 
-0.000528787      8.24427      74.3813 
4.68675e-05      5.39728      78.0199 
0.000773620      6.29605      150.505 
0.000223777      9.35470     -107.931 
0.000834849      11.0402     -53.0257 
-0.000133085      9.07999      31.7645 
0.000251853      8.59430     -157.851 
0.000253832      10.9656     -140.328 
0.000131336      8.68669     -129.114 
0.000178775      8.94227      12.7942 
0.000214279      8.28533     -162.000 
0.000128439      4.09001      50.1581 
0.000130983      8.26611      50.3036 
4.63858e-05      10.2395     -151.281 
-0.000135437      10.2648      161.599 
-0.000215680      8.75969      69.4118 
8.91765e-05      9.66534      172.389 
0.00172223      10.2952      6.91575 
-4.57566e-05      4.67477      23.7094 
-0.000737058      12.8656     -131.470 
-0.000259066      12.4736     -44.7416 
0.000955975      11.7760      36.7151 
0.000178698      7.36091      150.717 
0.000380394      6.37547      18.0959 
0.000458349      8.64389     -57.3777 
-0.000170725      4.51292      150.822 
4.52007e-05      5.53608      66.5832 
-0.000170255      6.48296     -31.6314 
0.000130415      8.98265     -173.221 
-0.000359217      5.29943     -149.372 
-0.000366084      11.8611     -58.9368 
4.49275e-05      13.9024      134.475 
-0.000290668      12.6118     -140.277 
4.46942e-05      11.9059     -35.7728 
4.46825e-05      9.80490      170.845 
0.000121722      3.83956     -19.4761 
-4.46671e-05      8.40435      32.8600 
-4.46571e-05      9.29689     -112.649 
0.000250772      8.02532      154.774 
-4.45750e-05      12.4032      141.152 
4.44329e-05      13.1698      133.707 
-0.000453885      10.2392     -161.671 
-0.000126630      9.54635     -7.70655 
-8.65826e-05      8.91793     -176.401 
-0.000492836      4.75076     -30.3398 
4.41636e-05      6.08070      175.286 
-8.79378e-05      12.4063      141.283 
-0.000353606      7.37512      58.0774 
8.64780e-05      9.28473     -79.1977 
0.000169371      12.2802      126.590 
-0.000208668      5.93013     -47.3230 
-8.08114e-05      6.74838      139.085 
-0.000809435      11.4108      129.380 
-4.36093e-05      10.2207     -161.637 
0.000362203      7.66089      89.1020 
-0.000209430      9.33232     -119.531 
-0.000169150      5.04751      22.6002 
0.000286267      9.57092     -153.971 
-0.000244551      8.91809      141.920 
-4.34482e-05      12.3973      140.893 
-0.000286653      11.3196      38.3270 
0.000165756      3.31491     -81.6700 
-8.58311e-05      2.94938     -159.352 
8.45417e-05      7.65289      149.885 
-4.28668e-05      12.4130      140.952 
-8.15099e-05      9.06934      31.6556 
0.000700551      7.38747      150.659 
-8.24313e-05      10.2841      161.635 
0.00115633      10.9221      146.805 
-0.00130185      8.93869     -176.279 
-0.000158876      12.3944      140.762 
0.000201193      13.1655     -47.5848 
-0.000204433      7.93973     -155.760 
0.000234308      10.6189     -18.3325 
-4.24316e-05      9.15918      6.52007 
8.32409e-05      1.81836     -140.358 
-0.000231521      12.6885     -46.2125 
0.000235402      9.06670      44.0175 
-4.22566e-05      12.4190      141.210 
0.00117698      13.8916      46.3986 
0.000273210      9.82490      170.864 
-0.000648487      9.22411      127.071 
-8.13199e-05      12.5248     -41.5050 
-8.20983e-05      8.53274      39.9591 
-0.000275673      2.91574     -47.2214 
-4.20192e-05      12.5012     -137.659 
0.000122810      8.96130      12.7666 
4.18631e-05      6.10014      175.301 
-0.000432862      12.4101      140.821 
-8.03884e-05      7.96443     -109.661 
-4.17552e-05      9.15690      6.39412 
-4.18135e-05      11.2118      138.834 
-8.20457e-05      10.0179     -14.9231 
0.000121523      11.5240     -53.4674 
-8.10290e-05      2.96835     -159.490 
-4.14757e-05      9.91277     -129.761 
4.13482e-05      9.26105     -79.2974 
-0.000262934      6.73379      66.1743 
8.09045e-05      11.2628     -136.871 
-8.05486e-05      12.1457      144.922 
0.000118477      10.9178      44.7048 
-0.000198608      9.17704      6.38003 
4.08819e-05      5.41794      119.405 
0.000198991      12.1339     -32.6169 
4.07260e-05      13.0959      44.8770 
-0.000229429      10.4673     -108.608 
-0.000237205      12.4221      141.342 
0.000159246      10.2581      4.92236 
-7.73484e-05      5.05533      22.8122 
-0.000302262      12.4863     -137.596 
7.96683e-05      9.81130      99.3845 
4.03355e-05      10.7367     -120.194 
-4.02185e-05      5.90323     -8.37627 
0.000191215      13.1551      133.768 
4.03405e-05      13.3854     -43.1827 
-4.02172e-05      4.74093     -30.1363 
-0.000118189      11.2265      138.900 
-4.03108e-05      4.15361     -148.987 
0.000265800      12.1350      134.198 
-0.000378779      11.0299     -144.148 
0.000116303      10.9500     -140.260 
0.000274676      13.3706     -43.2421 
0.000265394      9.28095     -79.3206 
-0.000232611      5.06622      22.5122 
-0.000268297      10.3087      161.566 
0.000305909      5.26083     -102.296 
3.98311e-05      12.2640      126.646 
3.97792e-05      9.90217      128.026 
0.000155169      4.52899     -93.5432 
-0.000194194      9.32272     -119.427 
3.96777e-05      9.68468      172.404 
-7.85595e-05      9.57862     -65.8425 
-7.55280e-05      10.0508     -70.5910 
-3.95058e-05      6.14049     -143.878 
3.93510e-05      9.07712     -173.549 
-7.55736e-05      8.75145     -79.3318 
-3.92614e-05      8.39337      32.7438 
-0.000226834      9.99830     -14.9530 
0.000115713      10.9273      158.977 
-0.000225899      11.5581      37.9011 
0.000431909      11.8559      41.7853 
0.000443306      12.6680      48.5829 
-0.000115343      9.91603      166.945 
0.000114345      8.98666      55.8840 
-3.89756e-05      14.3546      135.282 
0.000816789      11.3806     -31.3434 
0.000298879      6.39402      18.0416 
-0.000150901      8.80184     -132.976 
0.000264309      10.5315     -20.5694 
-0.000632819      10.2456     -161.564 
-7.68270e-05      12.9657     -38.5500 
-0.000260612      11.5422      37.9629 
-7.67863e-05      8.51203      41.8554 
3.87476e-05      3.29198     -81.9678 
0.000185662      7.29001     -63.7884 
-0.000296761      12.8017      140.516 
-0.000185671      8.78916     -9.82662 
-0.000263617      9.58693     -65.7320 
0.000628506      11.1138     -30.2578 
-0.000297648      11.7634      150.123 
-0.000150990      12.1756     -132.337 
3.85513e-05      13.8737      134.474 
3.84503e-05      10.7337     -17.7927 
-7.64057e-05      10.5095     -156.801 
0.000850540      13.3567     -43.1788 
0.000151729      8.92686      116.623 
-3.83866e-05      12.9004      136.131 
-3.84129e-05      11.7810      150.172 
-3.83270e-05      5.88319     -8.40501 
7.58327e-05      11.0733     -116.381 
-0.000447183      12.4373      141.398 
0.000332834      12.2406     -125.222 
3.82580e-05      11.5684      45.2786 
-0.000443980      12.5962     -140.218 
-0.000515727      9.99309      108.797 
0.000150760      14.0573      45.1146 
7.59603e-05      10.2564      4.80959 
3.81089e-05      10.8839      145.784 
0.000185208      11.5729     -124.651 
-3.81133e-05      11.9394     -149.054 
3.81062e-05      5.48867      105.860 
-3.78957e-05      8.92158      142.103 
0.000185169      8.54018     -89.8641 
3.78781e-05      12.6809      48.5168 
0.000111783      9.63150      151.203 
0.000146937      8.29138     -161.872 
-7.54613e-05      9.57541     -14.2682 
7.44175e-05      8.71074      61.0216 
0.000255297      7.68382      143.038 
7.26984e-05      2.25618      12.7975 
-0.000149148      11.2418      138.968 
-0.000221270      2.91688     -51.4023 
-0.000147514      4.97853      7.15180 
0.000184555      13.1511     -47.5275 
0.000183570      9.17437     -141.906 
0.000219856      8.62683     -57.3052 
3.75961e-05      10.2635     -23.6694 
-7.44695e-05      8.75259      69.5359 
-0.000439494      10.1957     -39.0286 
7.43009e-05      13.8601      134.417 
-7.42780e-05      10.6335      109.559 
-0.000110866      6.82053     -90.5043 
0.000185028      4.52778     -93.2873 
-0.000293366      6.42974     -7.14658 
-0.000184264      9.34995     -119.470 
0.000182550      10.8671      145.724 
-0.000146812      9.61253      126.368 
0.000146244      10.6318     -18.1945 
-0.000290978      4.76825     -30.2168 
0.000328822      14.0711      45.0583 
-0.000256093      10.5281     -156.845 
-0.000182903      13.7322     -134.703 
-3.72256e-05      1.92120      104.476 
-3.72553e-05      12.8504     -131.530 
0.000179700      11.5871      46.6086 
0.000182941      3.94699      17.6978 
7.36441e-05      7.64011      89.3979 
3.71988e-05      12.2523     -125.299 
-7.33992e-05      9.05911      31.5506 
-0.000327385      12.8638     -131.597 
0.000144796      5.12159     -66.0375 
0.000109434      10.9084      158.939 
-0.000182007      10.3344      161.495 
0.000109481      8.91779      116.507 
-0.000181959      11.8879     -58.9048 
0.000218286      10.5505     -20.5308 
-3.70766e-05      10.9591      139.070 
0.000108846      12.1492      134.267 
-3.69351e-05      12.1623      144.976 
-3.68128e-05      8.49695      41.9466 
-0.000544754      14.3966     -134.662 
-0.000109446      14.3683      135.226 
-0.000218017      10.3697      163.066 
3.67424e-05      9.86009      90.0000 
-3.68042e-05      10.2080     -39.1137 
-3.67359e-05      8.63537      93.4524 
-0.000181513      12.1888     -132.405 
-0.000254071      12.3921      140.632 
-0.000181572      9.77220     -108.991 
7.28532e-05      11.8704      41.7226 
-3.66686e-05      8.42748      32.5948 
7.30099e-05      12.2899      135.198 
-3.66796e-05      9.59505     -14.2384 
-7.29450e-05      11.3098     -148.080 
-3.65454e-05      8.93404      142.000 
0.000108711      3.11828      18.3172 
-7.25056e-05      10.0380     -99.5179 
3.65519e-05      11.3883      126.790 
3.64875e-05      8.69666     -41.8277 
-0.000108769      9.59496     -65.6258 
-0.000144228      7.86576      58.4100 
7.26459e-05      8.54015     -90.0000 
-3.64584e-05      9.23893     -119.005 
0.000144494      13.1691      133.832 
-3.62960e-05      9.19643      6.36652 
-0.000144591      12.4532      141.456 
-7.21889e-05      7.75380     -71.6562 
-7.24068e-05      8.23904      74.5119 
0.000144281      10.1603      89.8857 
-7.23188e-05      10.4608     -108.503 
7.23776e-05      4.52670     -93.0407 
-3.62754e-05      7.85517      58.5359 
-3.62308e-05      9.54065      23.3388 
-0.000222049      8.04535     -70.8451 
-7.21681e-05      10.5513      104.826 
3.61300e-05      10.2368     -23.6111 
-3.60582e-05      8.00138      19.1163 
-3.60285e-05      9.53223     -114.416 
3.61073e-05      9.34848     -107.812 
-7.20943e-05      7.76552     -35.7758 
-3.61741e-05      12.4713     -137.534 
3.61170e-05      8.70075     -159.688 
-3.60046e-05      11.4322     -37.2512 
3.60902e-05      7.08727      119.969 
-7.20179e-05      9.65769     -103.777 
-3.59497e-05      12.7710     -134.557 
-3.59565e-05      13.1263      39.5607 
0.000184181      3.09905      18.4349 
7.18966e-05      10.1684      69.7463 
-3.59644e-05      8.94943      142.077 
-7.17970e-05      14.0315     -133.845 
-3.59024e-05      11.0463     -144.210 
3.58864e-05      9.14943     -36.0184 
-3.59498e-05      2.90090     -46.9497 
3.59924e-05      9.84416      170.882 
-3.58515e-05      11.6424     -151.585 
-3.59096e-05      8.74772     -79.4622 
3.58632e-05      8.70094      61.1383 
-3.58289e-05      14.4108     -134.719 
-3.58228e-05      5.19720     -113.115 
-0.000327479      13.0269      46.0572 
-0.000304774      11.2435     -121.174 
0.000190714      12.8011      41.0093 
0.000264818      11.5491     -129.588 
-0.000189447      10.3319      104.116 
7.51253e-05      12.7864      41.0667 
4.02279e-05      11.5335     -129.652 
0.000298005      8.71976     -159.734 
0.000263453      10.0463     -105.945 
0.000222202      10.9527     -140.410 
0.000220088      11.0014     -26.5668 
-7.47136e-05      6.73365      138.976 
-7.29242e-05      8.83002      54.4001 
-0.000146209      8.52556      41.9569 
0.000109758      7.85087      65.7867 
-0.000110092      8.01994     -36.5847 
-0.000142516      8.78804     -132.879 
-7.28115e-05      1.50283      25.2087 
-7.37920e-05      7.97127     -109.798 
3.70188e-05      12.7883      40.9433 
0.000142067      5.48277      116.656 
-0.000143909      12.7989     -45.3159 
-0.000107920      12.9988      46.0619 
7.09818e-05      11.1646      54.7739 
7.13641e-05      4.31417     -172.806 
-7.24342e-05      2.90201     -47.5150 
-7.02665e-05      12.5017     -44.7398 
0.000107219      10.2381      119.618 
7.11581e-05      5.93057     -101.081 
3.58159e-05      11.8653      53.8440 
-0.000106918      10.1041      122.304 
-7.02144e-05      11.6089     -122.047 
-0.000142492      5.08425      22.4280 
0.000177395      10.7444     -120.050 
7.04056e-05      10.7984     -66.9948 
7.14570e-05      11.0163      128.515 
-7.07719e-05      9.79226      142.804 
-3.57173e-05      11.6521     -151.497 
-7.01048e-05      6.50022     -31.5377 
6.97241e-05      12.3323     -53.2424 
-3.52327e-05      7.42671      92.4669 
-3.51206e-05      8.95300      142.259 
-3.50789e-05      7.77738     -35.8969 
6.92505e-05      9.30756     -79.1023 
-3.48797e-05      6.75233      66.2437 
6.91278e-05      11.1005     -56.9115 
-3.48175e-05      11.6614     -151.413 
3.46542e-05      8.90877      116.390 
3.46592e-05      5.25655     -102.080 
3.46239e-05      7.63216      106.443 
-3.45620e-05      13.2800     -45.1831 
-3.46524e-05      2.88711     -47.2435 
-3.45925e-05      8.48899      32.4918 
3.44965e-05      11.1892      28.8546 
3.45071e-05      9.40928     -106.546 
-3.42778e-05      11.5965     -135.281 
-3.42140e-05      6.72563      66.3322 
-3.41724e-05      6.56101     -4.54596 
3.42266e-05      13.1059     -51.3807 
-3.42522e-05      4.15156     -64.9218 
! Tentative model.
! Flux (Jy) Radius (mas)  Theta (deg)  Major FWHM (mas)  Axial ratio   Phi (deg) T \
! Freq (Hz)     SpecIndex
3.59205e-05      10.2379      119.620 
