! Center RA: 12 21 31.69052,  Dec: +28 13 58.50011 (2000.0)
! Established model.
! Flux (Jy) Radius (mas)  Theta (deg)  Major FWHM (mas)  Axial ratio   Phi (deg) T \
! Freq (Hz)     SpecIndex
 0.0808660    0.0286526     -135.000 
 0.0219271    0.0446338     -116.996 
0.00180058    0.0828082      104.162 
0.00829755     0.101837      101.476 
 0.0243596    0.0633577     -108.650 
 0.0312277     0.121759      99.5784 
 0.0281374    0.0828082     -104.162 
 0.0100834     0.141777      98.2159 
0.00225622    0.0896014     -116.350 
0.00861317     0.107434     -111.727 
0.00339395     0.120062      90.0000 
0.00214445    0.0600310      90.0000 
0.000506529    0.0397705      90.0000 
0.000497810    0.0202604      90.0000 
0.00316200     0.145849      105.824 
 0.0119225     0.164706      103.973 
0.000585836    0.0998015      90.0000 
0.000872576     0.189835      108.435 
0.00606667    0.0828082      75.8378 
0.00289932     0.209153      106.680 
0.00292674     0.234065      110.062 
0.00406422     0.126477     -108.327 
0.00176153     0.253192      108.489 
0.000388550     0.101837      78.5245 
0.00115533     0.152624     -113.162 
0.00548694    0.0896014      63.6495 
0.00342265     0.260038      112.569 
0.00359294     0.145849     -105.824 
0.00317983     0.278155      111.026 
0.000790430     0.170734     -110.586 
0.00385483     0.107434      68.2729 
0.00506160     0.164706     -103.973 
0.00352243     0.297155      109.625 
0.00546572     0.189835     -108.435 
0.00311920     0.116465      58.9729 
0.000580873     0.304558      113.217 
0.000848283     0.316312      108.392 
0.00313897     0.323277      111.801 
0.000293766     0.459977      124.364 
0.000640207     0.250509      118.638 
0.00114802     0.476838      122.990 
0.00108272     0.100252      53.2159 
0.000309323     0.798447      112.081 
4.41707e-05     0.184432     -102.453 
4.40769e-05     0.334882      107.339 
0.000805952     0.349107      113.700 
0.00150082     0.969133      111.818 
0.000191977     0.375627      115.183 
0.000673721    0.0633577      71.3505 
4.68758e-05     0.394056      113.929 
0.000137215     0.121759     -99.5784 
4.64813e-05     0.402700      116.565 
0.000181750     0.420241      115.375 
4.44499e-05     0.429314      117.819 
0.000339530     0.447333      116.608 
0.000672297     0.951048      112.255 
0.000124230     0.456404      118.798 
0.000565130     0.474259      117.619 
0.000324839     0.141777     -98.2159 
0.000710901     0.501018      118.638 
0.000700782     0.769637      114.541 
0.000658365     0.161111     -97.2243 
3.11961e-05     0.987971      111.381 
0.000321131     0.995250      112.427 
8.67156e-05     0.483985      119.745 
0.000373538     0.751254      115.183 
0.000380456      1.01401      111.990 
4.89845e-05     0.181229     -96.4188 
0.000408220     0.510656      120.559 
0.000249861     0.180093     -90.0000 
4.62889e-05      1.03212      111.585 
0.000112788     0.113549      45.0000 
0.000217816      1.03975      112.623 
0.000186121     0.128090      51.1829 
0.000454043     0.778270      115.898 
0.000201592     0.181229     -83.5812 
0.000120169      1.05848      112.201 
0.000377974     0.141141      45.0000 
9.46210e-05      1.07726      111.794 
0.000146054     0.184432     -77.5470 
0.000402189     0.760096      116.565 
8.95973e-05     0.504899      123.666 
7.23259e-05      1.09540      111.415 
5.21349e-05      1.11429      111.035 
1.74738e-05      1.00315      113.497 
0.000149854     0.189835     -71.5651 
0.000175183     0.516406      125.538 
3.36256e-05     0.984607      113.967 
6.64954e-05      1.13322      110.667 
0.000264521     0.733645      115.831 
0.000147889     0.966811      114.437 
7.88352e-05      1.15150      110.324 
0.000120935     0.197181     -65.9711 
1.54140e-05      3.00487      116.904 
7.49080e-05      3.01422      116.399 
0.000184567      1.17052      109.980 
0.000348709     0.156126      39.7351 
7.11773e-05     0.527985      127.261 
7.05828e-05      2.87543      113.354 
0.000198062      3.01409      117.248 
2.81802e-05     0.197181     -114.029 
6.90548e-05     0.205897     -61.0062 
1.37381e-05     0.512006      128.634 
2.71476e-05      1.14142      93.0148 
0.000151161     0.524894      130.361 
0.000148127      2.86775      112.996 
0.000157432     0.223834     -63.5208 
2.62930e-05      1.08279      85.7475 
7.55408e-05     0.948403      114.943 
4.88923e-05     0.205897     -118.994 
8.86103e-05      1.18958      109.647 
0.000207320      1.08441      84.7194 
7.05010e-05     0.607364      107.248 
0.000148382      1.17760      110.906 
0.000181951      3.03211      117.072 
2.33820e-05     0.993009      115.035 
0.000128734     0.523357      133.490 
9.58581e-05     0.975367      115.520 
0.000659718      1.06707      83.5397 
0.000135848      2.85990      112.622 
0.000377479     0.184676      40.5508 
1.10002e-05     0.626742      106.699 
5.13647e-05     0.216445     -123.690 
6.29114e-05     0.601667      105.406 
0.000145264     0.233573     -59.0678 
3.17849e-05      1.20797      109.335 
0.000108421      2.84190      112.773 
0.000262402      3.75915      95.7971 
5.01214e-05      1.16591      112.157 
2.00669e-05      1.22711      109.022 
0.000209243      1.00142      116.047 
2.90674e-05     0.621223      104.909 
2.91379e-05     0.536971      135.000 
9.75157e-06      1.25851      107.560 
0.000120901      2.97767      120.701 
9.73062e-05     0.268467      116.565 
1.90531e-05      1.27784      107.286 
9.79308e-05     0.523357      136.510 
1.86160e-05      1.13722      113.859 
0.000116762      3.04139      117.412 
7.93643e-05     0.596781      103.599 
3.64628e-05      1.29649      107.030 
7.85087e-05      2.65537      112.129 
3.47030e-05     0.244605     -125.006 
0.000407899      3.60507      105.118 
0.000525697      1.75664      97.8567 
1.77207e-05      1.14556      114.786 
7.58278e-05      1.31587      106.771 
1.71225e-05      1.21072      120.793 
8.18338e-05      2.38180      113.763 
8.16688e-05      2.35610      113.520 
0.000115433      1.22122      121.610 
8.08313e-05     0.244605     -54.9936 
8.11437e-05     0.256296     -128.581 
9.80492e-05     0.592344      101.694 
6.78697e-05     0.538237      137.995 
8.04661e-06      2.63731      112.289 
5.34512e-05      2.30202      108.748 
7.51125e-05      1.32987      105.714 
0.000252688      2.96026      120.901 
0.000540045      3.75723      95.5011 
3.82268e-05      2.87861      112.467 
1.51544e-05      2.53870      106.008 
2.19760e-05      2.66278      112.518 
0.000183089     0.199903      36.9129 
2.20218e-05      2.87093      112.093 
5.59993e-05      1.33528      106.520 
8.14958e-05      2.53319      105.568 
5.50729e-05      2.29019      109.385 
2.13323e-05      2.88902      111.948 
2.74496e-05      2.90782      111.799 
3.38942e-05      1.23196      122.412 
2.69447e-05     0.524894      139.639 
2.00824e-05      2.68928      112.751 
9.37939e-05      2.39003      114.207 
7.02238e-05     0.588572      99.7625 
1.33832e-05      1.08646      83.6554 
1.32741e-05      2.92664      111.651 
0.000156710     0.983930      116.546 
0.000225274      1.34866      105.490 
4.90595e-05      2.73379      112.821 
0.000103002     0.269397     -131.952 
6.53330e-06      2.95659      111.016 
0.000150538      1.24911      121.914 
1.92189e-05      2.29582      108.287 
9.78359e-05     0.540492      141.030 
4.98055e-05      2.96835      110.510 
0.000121616      2.28355      108.905 
8.10488e-05     0.254690     -45.0000 
0.000102649      3.05042      117.738 
5.78893e-05     0.212689      41.2810 
4.58056e-05      2.97964      110.014 
2.29856e-05     0.233573      120.932 
9.13035e-05      2.77871      112.867 
5.58828e-05     0.565518      98.1624 
5.71289e-06      2.36396      113.953 
1.08721e-05      2.71582      112.980 
7.70035e-05      2.39841      114.649 
0.000398861     0.228306      37.9245 
0.000153012      2.76005      113.031 
0.000345043      3.01120      109.401 
2.13550e-05     0.244605      125.006 
0.000101510      2.54686      105.027 
6.84151e-05      3.36907      111.233 
6.33291e-05     0.562998      96.1209 
6.42302e-05     0.228306      127.925 
1.97105e-05     0.527985      142.739 
0.000255774     0.283342     -135.000 
2.35398e-05      2.28954      107.805 
7.35065e-05     0.543641      143.984 
0.000289677      1.30046      120.516 
5.23936e-05      2.40661      115.071 
6.64078e-05     0.269397     -41.9516 
9.49915e-05      2.27730      108.441 
7.20191e-05      1.06498      84.6228 
0.000225810      3.37619      111.541 
1.76957e-05     0.541740      94.2100 
9.40387e-05      2.93639      121.627 
8.38686e-05     0.965848      117.083 
8.59790e-06      2.67856      113.319 
2.44920e-05      1.18188      92.9115 
8.48947e-06     0.561200      94.0638 
6.62064e-05     0.540658      92.1476 
0.000194254      1.36819      105.263 
8.22231e-06      2.44230      115.731 
2.34133e-05      2.45083      116.141 
3.07524e-05     0.226037      135.000 
1.44225e-05      2.66066      113.485 
0.000106609      2.48635      116.782 
0.000123164      3.05990      118.073 
5.32203e-05     0.532403      145.683 
2.54950e-05      2.28343      107.321 
0.000107106      1.20137      92.8642 
0.000147923      1.75941      98.4861 
3.70051e-05      3.59068      105.503 
0.000127038     0.288454     -33.6487 
0.000165669     0.244605      144.994 
5.83727e-05      2.41527      115.506 
3.57207e-06      2.80458      113.094 
2.03361e-05      2.54169      104.586 
3.87188e-05     0.540279      90.0000 
0.000211273      2.29948      103.070 
0.000110938     0.975239      118.143 
3.47969e-06      2.26439      109.071 
2.93678e-05      2.25867      110.193 
6.90083e-05     0.560155      92.0728 
2.01059e-05      2.38069      114.845 
0.000127260     0.549255      146.874 
2.60697e-05      2.68634      113.701 
2.62028e-05      2.56130      104.472 
5.96953e-05      2.83486      122.899 
0.000102794      3.58551      105.203 
4.89417e-05      2.25479      111.330 
2.80245e-06     0.244605      35.0064 
2.04075e-05      2.24750      110.849 
0.000142273     0.271820      36.0157 
3.67726e-05      2.66849      113.869 
2.65083e-05     0.540658      87.8524 
6.49074e-05      2.55631      104.032 
9.18358e-05      3.77552      95.1656 
0.000106938      1.77871      98.3933 
8.64570e-06      2.49521      117.182 
7.74863e-05      3.38368      111.860 
2.38697e-05      2.23593      111.519 
2.83795e-05     0.559789      90.0000 
3.32438e-05      1.22078      91.8669 
8.30762e-06      3.00453      109.037 
2.64881e-05     0.957421      118.714 
5.46006e-05      2.13573      111.996 
-0.000222459    0.0562440     -45.0000 
3.93841e-05     0.796545      115.261 
2.97610e-05      3.06949      118.407 
1.14197e-05      2.64998      114.047 
7.80843e-06     0.284207     -39.3213 
1.58892e-05      2.81787      123.123 
9.17090e-05     0.269397     -48.0484 
-9.31748e-05     0.917561      78.6809 
1.08397e-05     0.581411      93.9223 
5.66578e-05     0.233573      149.068 
5.28984e-06     0.560155      87.9272 
8.59891e-06      2.63149      114.226 
1.33957e-05      2.50446      116.573 
1.17439e-05      3.07779      117.896 
9.97771e-06     0.580403      92.0005 
1.97809e-05      1.06954      82.4611 
4.95049e-06     0.561200      85.9362 
4.90324e-06      2.57597      103.923 
4.88794e-06      1.34752      84.0227 
3.22085e-06      3.08732      118.228 
1.60618e-06      2.61371      114.402 
-0.000347779      4.30818      102.872 
-0.000148474      9.08263      19.1520 
-0.000268769      4.32365      102.560 
0.000540509      1.45896      123.249 
-0.000527846      5.25692     -29.3898 
-0.000417381      9.10843      19.2306 
0.000624565      8.43255     -70.3170 
-0.000240669      10.1160     -101.866 
0.000130397      1.80891      119.117 
0.000424381      10.3307     -9.80716 
-0.000389737      11.2207     -59.8255 
-0.000202544      10.1358     -101.842 
-0.000498649      8.81079      81.7788 
0.000429123      9.12382     -115.722 
0.000153897      1.81630      118.259 
-0.000184945      7.34592     -7.66658 
0.000278441      11.6660      38.7358 
0.000148846      9.64628      74.6081 
0.000182563      5.59924      60.2294 
-0.000208802      7.67551     -173.116 
0.000207108      2.40565      42.9902 
-0.000209169      6.62899     -127.771 
0.000274290      10.6594     -19.6251 
-7.41390e-05      10.0254      55.0740 
-0.000273663      10.3272      104.011 
-0.000108738      1.72080     -107.590 
-0.000207742      4.74836     -119.802 
7.39984e-05      9.79881     -13.6968 
0.000268502      10.5697     -107.510 
0.000239437      12.1669     -144.298 
-0.000133099      10.1119     -101.754 
0.000236303      13.7191     -44.1734 
-0.000103908      9.77865     -72.3784 
-7.14174e-05      4.64441     -12.1814 
7.16496e-05      8.73172      76.7603 
0.000167578      10.1380      18.7555 
-3.60234e-05      3.46057      59.4368 
3.59922e-05      10.6379     -46.3690 
3.59270e-05      5.95473      80.9151 
-0.000231290      12.2824     -49.3581 
0.000194295      8.49284      38.7879 
-0.000131806      7.08343     -4.69711 
0.000164410      11.2836     -122.847 
0.000226041      9.79404     -13.5816 
0.000131228      9.44091      89.1484 
-0.000134002      12.0358      45.6062 
0.000290554      5.95784      80.7299 
0.000193565      10.6240     -46.4481 
0.000289225      7.80235      91.3226 
-0.000255199      6.93937     -79.3693 
-9.81281e-05      10.2401     -179.551 
9.78676e-05      5.93546      145.993 
0.000253321      6.73642     -126.430 
0.000159628      8.72727      76.8850 
9.62122e-05      10.5639      118.990 
6.38747e-05      8.21195     -67.3693 
-0.000126926      11.2309     -59.7361 
-3.33384e-05      8.07129     -149.303 
-9.48116e-05      1.71479     -106.944 
-9.50779e-05      4.43998     -164.583 
6.36844e-05      3.14094     -178.905 
6.40571e-05      9.66509      74.6388 
-9.30606e-05      9.43334      28.6323 
-9.37466e-05      12.1551     -43.0663 
-6.31145e-05      10.4924     -13.5582 
6.31099e-05      9.00219      72.8126 
9.18532e-05      5.33219     -107.688 
-3.18203e-05      3.43385      59.5516 
-3.16746e-05      10.0142      55.1656 
6.20389e-05      10.3507     -9.78805 
-6.15942e-05      7.63569      162.942 
-3.14658e-05      6.89501     -107.382 
9.16242e-05      10.0915     -173.171 
-9.15341e-05      8.82966     -16.1755 
-6.13737e-05      9.57519      93.2346 
-9.06531e-05      6.60057     -127.740 
6.08504e-05      1.47017      123.909 
-3.10020e-05      3.39257      73.9101 
-3.06102e-05      3.56655     -102.627 
-3.05998e-05      10.2671     -174.523 
3.03057e-05      9.72028     -90.5883 
5.93414e-05      9.68463      74.6705 
-2.99637e-05      8.00253      128.302 
2.98592e-05      12.1828     -144.352 
-2.98031e-05      7.36525     -7.64633 
-2.97008e-05      3.36824      74.1493 
-2.97045e-05      6.91969     -107.494 
2.96996e-05      7.41675     -127.552 
2.96369e-05      12.4024      134.804 
-2.92450e-05      11.3063     -63.9791 
0.000155479      11.4490     -50.3877 
-0.000196839      6.87785      141.730 
0.000237907      5.41386     -108.297 
-7.47209e-05      12.9395      129.671 
-6.90958e-05      10.1624      56.5599 
-2.66472e-05      8.64195      85.8871 
0.000308520      3.70381     -173.485 
-0.000322836      12.9520      129.737 
0.000140258      11.4388     -54.3946 
-0.000117994      8.64343      85.7531 
-7.05491e-05      10.1455      56.4968 
-4.88847e-05      4.30729      10.1647 
-7.15375e-05      9.33293      126.111 
9.31096e-05      8.36288      162.604 
0.000489329      11.5499      117.764 
-0.000163566      10.5175      65.6274 
0.000237121      11.4275     -54.4741 
0.000110278      4.59035     -112.541 
-8.59074e-05      4.31078      10.4199 
-0.000102752      5.58862     -37.7346 
0.000114577      9.80452     -52.7100 
4.24408e-05      3.54002      132.251 
-7.69102e-05      9.32810      126.281 
6.02829e-05      8.94170     -65.5556 
5.76909e-05      11.4366     -50.4630 
2.13669e-05      3.72394     -173.521 
-6.12159e-05      12.6599      133.785 
-0.000171180      7.80986      115.319 
-0.000162861      6.08782      95.4674 
-6.07878e-05      10.6974      35.0256 
-2.07403e-05      8.66363      85.7631 
0.000144432      8.36873      162.476 
2.05731e-05      8.32570      9.95982 
-0.000105778      11.1315      44.0550 
-5.65191e-05      4.20488     -67.3384 
-7.53188e-05      5.82596      103.702 
-2.02765e-05      8.59510      84.7956 
0.000202809      5.81039      144.668 
-0.000143376      12.4967     -127.456 
-5.61005e-05      11.4715      136.201 
7.27160e-05      11.8429     -136.849 
1.97934e-05      12.8100      139.495 
-0.000101083      8.34777      14.0038 
-8.65933e-05      8.59696      84.6611 
3.69433e-05      10.3771     -159.818 
3.82716e-05      4.61684     -112.676 
-8.47302e-05      11.5582      133.527 
3.65563e-05      11.5557      147.081 
1.92898e-05      5.14985      133.430 
-1.90785e-05      10.6077     -34.7075 
4.87617e-05      3.52643      132.007 
-3.64400e-05      3.09850      29.3835 
-0.000184962      9.55787     -73.8402 
-0.000232352      10.7140      34.9634 
8.58570e-05      7.89149     -66.5503 
-8.39140e-05      11.9308     -39.6948 
5.26341e-05      8.30226      9.84629 
5.31735e-05      12.7946      139.436 
-3.67677e-05      9.79826     -42.1878 
5.17252e-05      9.79226     -52.8043 
4.72017e-05      13.1200     -49.3884 
-0.000112091      12.6739      133.851 
-8.47004e-05      9.17704      173.620 
6.91742e-05      10.2099      140.164 
-1.80641e-05      10.1731      56.4682 
1.79987e-05      11.4353      147.643 
3.47672e-05      5.13516      133.585 
-1.79801e-05      8.68407     -45.7457 
1.77983e-05      10.5142     -112.124 
0.000296905      8.32322      47.5321 
9.76959e-05      4.59816     -112.774 
-0.000186841      9.27549     -124.549 
-3.36814e-05      9.79639     -42.3519 
-3.24844e-05      10.5966     -34.6207 
-1.69331e-05      8.66994     -45.8416 
-4.64821e-05     0.865715      6.61990 
-5.93266e-05      6.89843     -103.070 
0.000131967      12.1087     -52.4476 
-3.25230e-05      11.4727      136.341 
3.18962e-05      13.6498      43.8729 
-1.65781e-05      7.63153      59.2691 
-1.64985e-05      5.60841     -37.3176 
-0.000139656      7.10460     -61.7730 
6.15484e-05      5.36684     -117.045 
7.15912e-05      8.97491      114.907 
4.66869e-05      2.93782     -168.613 
3.16281e-05      11.4245      147.729 
-8.01551e-05      11.3070      38.8985 
3.10587e-05      8.94979     -65.4419 
-0.000100205      8.65542     -45.7482 
0.000156665      10.3203     -113.286 
0.000202592      12.7968      139.564 
4.33954e-05      2.12324     -176.758 
7.08268e-05      8.21846      16.9773 
-4.57469e-05      7.61476      59.1941 
-1.57895e-05      3.08861      29.0560 
-0.000155196      8.62250     -91.4611 
1.57567e-05      6.49532     -70.9517 
-1.57934e-05      5.84492      103.656 
-0.000182808      12.4806     -127.513 
-1.55190e-05      9.81137     -42.2722 
8.98340e-05      8.32222      9.82243 
0.000152792      10.1970      140.252 
-0.000141675      11.4862      136.271 
1.51403e-05      2.10376     -176.728 
-2.93409e-05      5.61172     -37.0323 
-0.000134181      8.11508     -86.4693 
-2.92915e-05      7.37322     -55.2764 
-1.50109e-05      6.38225     -170.806 
2.88666e-05      12.4881      142.743 
3.99422e-05      11.4210     -50.3983 
-4.32404e-05      10.3333      37.8469 
-4.30205e-05      4.24139     -141.508 
8.25087e-05      7.01782     -98.5226 
1.48120e-05      6.48355     -70.7262 
-1.46897e-05      5.83079      103.895 
5.53876e-05      13.8995      47.3322 
5.47717e-05      6.91989      109.064 
1.46801e-05      11.2643     -125.242 
2.84715e-05      7.87360     -66.4938 
0.000104127      8.38734      162.517 
-9.41256e-05      5.84593      22.5293 
-2.87595e-05      6.06962      95.6761 
-1.45320e-05      10.5256      65.5307 
1.44964e-05      4.18991     -42.6775 
-1.45004e-05      11.3193      38.9754 
-2.82764e-05      9.73397      7.08064 
-2.78820e-05      8.54241     -4.16092 
0.000165887      10.1606     -73.0612 
0.000336019      11.4579     -142.089 
-7.54480e-05      7.62516      59.0633 
-4.05400e-05      9.81328     -42.1084 
3.98490e-05      8.81979      33.4399 
-0.000147407      8.78337     -85.8209 
-0.000354070      11.3350      38.9110 
-0.000368479      9.30730      61.5071 
3.93992e-05      4.20427     -42.4973 
6.57692e-05      8.16559      146.891 
1.40102e-05      3.02447     -168.174 
-2.70471e-05      9.68272      132.491 
-0.000122018      9.21025      92.7365 
-2.71052e-05      8.78192     -85.9528 
-3.97181e-05      7.40358      178.298 
-1.37935e-05      9.55225     -73.9569 
-2.47142e-05      1.62774     -100.626 
-5.16437e-05      6.08592      95.2776 
1.37293e-05      5.35765     -116.852 
1.36945e-05      11.8567     -136.777 
-2.68571e-05      9.87895      28.2781 
0.000136651      11.7713      150.255 
6.38715e-05      5.12121      133.421 
5.11914e-05      9.77108      76.9872 
-3.57064e-05      9.15918      173.480 
6.40343e-05      3.06757     -167.956 
-2.60666e-05      10.3179      37.9134 
-6.41175e-05      10.8988      159.371 
-5.24559e-05      4.26986     -141.464 
-2.67708e-05      12.6745      133.721 
-3.82002e-05      9.75407      7.06597 
-2.56282e-05      7.37777     -55.4921 
5.21461e-05      12.4920      142.873 
0.000152235      11.4342     -54.2529 
-1.30384e-05      7.64190      59.1385 
-4.56090e-05      10.3054      37.8245 
-7.94648e-05      7.02398      88.0409 
3.71349e-05      7.10241      108.894 
-2.56597e-05      2.01300      152.155 
-2.56825e-05      12.2043     -34.3164 
-6.95609e-05      6.92276     -103.196 
-1.29361e-05      5.66591      103.885 
2.45641e-05      11.1177      121.689 
2.43729e-05      11.8706     -136.706 
0.000199184      12.8954     -137.450 
-0.000101301      12.6885      133.788 
-5.56625e-05      8.54102     -4.03039 
-1.27142e-05      11.8483      58.1077 
2.45157e-05      11.4308      147.869 
3.22799e-05      8.88070      123.796 
-6.26333e-05      8.59887      84.5267 
-1.25133e-05      11.0941      56.3981 
-0.000122730      4.28572     -141.633 
1.24407e-05      3.54095      131.796 
-0.000141199      8.76316     -85.8113 
-0.000295833      14.2412     -134.601 
6.72152e-05      7.04014     -98.6621 
-0.000214934      12.2096     -34.1843 
1.23324e-05      7.33780     -131.684 
-5.28391e-05      9.89680      28.2225 
-0.000116723      8.64145     -45.6579 
4.57682e-05      11.2925     -125.267 
-4.47415e-05      3.26023     -91.0551 
-6.81857e-05      5.66126      103.694 
-2.39114e-05      9.52810     -5.78109 
-5.23905e-05      7.98994     -44.6956 
5.42910e-05      12.0963     -52.5237 
-2.17638e-05      5.63246     -36.6256 
-2.32770e-05      9.92329     -163.612 
-2.25985e-05      9.66779      132.572 
4.30247e-05      6.56427     -96.6498 
2.39141e-05      8.14925      146.816 
3.29690e-05      9.80936     -95.7337 
1.20497e-05      8.89754      123.724 
-1.20116e-05      7.40303      178.449 
4.62930e-05      7.32484     -131.570 
-3.43548e-05      11.1103      56.4538 
1.18697e-05      11.1716      153.297 
-4.38898e-05      7.76811     -107.222 
1.17442e-05      6.07159     -5.85926 
1.17609e-05      2.12219     -177.305 
-0.000136116      11.8214      58.1380 
1.17302e-05      14.2707      44.2608 
-5.59026e-05      10.8919      159.468 
-3.38672e-05      11.6360     -37.1056 
0.000118997      5.10731      133.256 
1.16695e-05      8.15454      147.010 
-0.000171906      8.13413     -86.6152 
0.000130811      13.8858      47.3937 
1.15944e-05      13.6779      43.8730 
5.29175e-05      3.11071     -167.744 
-2.23305e-05      5.59231     -37.4434 
-5.15737e-05      8.74456     -164.343 
2.14327e-05      11.1890      153.342 
-0.000173464      9.54631     -5.65234 
-7.38775e-05      9.21124      92.8624 
-2.20348e-05      10.3180     -55.6627 
0.000200304      12.5042      142.799 
2.17985e-05      6.90074      109.119 
-7.09772e-05      12.4410     -35.2468 
4.18618e-05      11.2760     -125.326 
0.000118722      14.2849      44.3190 
8.95588e-05      8.13818      146.936 
4.24063e-05      9.79009      77.0130 
-9.51508e-05      8.52220     -4.17080 
-7.81645e-05      7.55920      115.545 
3.00529e-05      8.98442      114.741 
-1.11931e-05      2.02163      152.931 
-3.24447e-05      5.65521     -170.638 
3.24102e-05      11.1807      153.205 
0.000154326      10.1476     -72.9237 
-2.05382e-05      6.15737     -146.926 
-1.11240e-05      6.08416      95.0946 
5.02739e-05      9.78719     -95.6275 
-3.97356e-05      12.4528     -127.493 
-1.10566e-05      9.75083     -35.4844 
6.99191e-05      7.12159      108.842 
5.29804e-05      7.31142     -131.451 
1.09370e-05      6.05429     -6.06885 
5.78325e-05      11.1930     -149.863 
5.96620e-05      7.09200      104.035 
-1.08515e-05      10.4392     -38.2308 
-3.82426e-05      7.91777      115.268 
-4.03140e-05      12.6628      133.271 
-2.12604e-05      12.3295      125.160 
-8.88984e-05      7.63559      58.9329 
3.07065e-05      11.4205      147.952 
1.07075e-05      11.0953     -140.486 
1.07114e-05      2.12136     -177.831 
0.000184455      14.0495      46.6729 
9.74388e-05      10.5265     -136.693 
2.04005e-05      11.1343      121.637 
-4.12761e-05      12.1896     -40.2734 
-3.99033e-05      11.6522     -37.0455 
-1.05756e-05      9.77669      7.16920 
1.06121e-05      3.70608     -173.186 
-1.05331e-05      9.30324     -124.577 
1.05176e-05      6.19812      80.9026 
0.000127635      13.4109     -139.777 
-9.51647e-05      12.1487      41.0631 
3.04588e-05      12.9991      137.868 
0.000136228      7.89443      93.4877 
-1.04803e-05      11.1215      56.3668 
-2.02254e-05      9.98573      122.735 
1.04618e-05      11.8809      142.457 
-3.37635e-05      10.8730      159.430 
-1.04442e-05      13.9163     -44.7662 
-1.04213e-05      5.64157      103.742 
-0.000207309      13.8010     -42.5916 
2.84616e-05      6.56656     -96.8189 
-0.000160993      7.48788      121.568 
-1.03721e-05      4.53035     -66.0375 
0.000148361      11.1110     -140.552 
-3.01312e-05      5.86390     -177.851 
1.97331e-05      7.15577     -159.895 
1.02866e-05      8.83099     -102.559 
-6.62532e-05      10.3127     -55.5063 
-8.31458e-05      6.34821     -174.574 
1.98220e-05      9.12188      7.68684 
-1.01878e-05      5.65649      103.494 
4.65733e-05      11.5318     -144.601 
-2.90956e-05      12.3345      125.029 
2.78594e-05      9.56547     -133.137 
-3.85563e-05      11.4800     -122.331 
-3.82930e-05      5.67852     -170.469 
1.00190e-05      11.8840     -136.637 
-2.90925e-05      10.8848      159.567 
9.96932e-06      10.1814      140.179 
-9.93719e-06      10.4580     -38.0088 
-8.15364e-05      5.63679      103.542 
1.93957e-05      11.8649      142.397 
4.76106e-05      7.29802     -131.332 
-9.87943e-06      8.54767     -151.336 
6.57483e-05      12.7991      139.692 
8.90789e-05      9.61343      55.6810 
-9.28620e-05      12.9676      129.680 
-8.90331e-05      13.9301     -44.7097 
-1.93373e-05      10.4906      47.7048 
4.51153e-05      13.4608      40.6006 
-9.77694e-06      7.38333      178.294 
-8.00448e-05      12.1873     -40.4077 
9.76024e-06      12.2306     -140.374 
2.78569e-05      8.85949     -102.781 
-6.42606e-05      4.31313     -141.591 
9.70508e-06      5.79387      144.552 
1.86651e-05      3.72864     -172.914 
-2.78021e-05      7.74948     -107.265 
3.91883e-05      12.4028     -47.7464 
6.95099e-05      10.0228      140.020 
5.51030e-05      11.4097      148.038 
9.63409e-06      4.23287     -123.239 
3.34056e-05      9.92435      24.6544 
8.54260e-05      11.3042     -125.351 
2.79680e-05      8.17065     -56.0750 
-9.57855e-06      6.58164      141.908 
4.61968e-05      13.0122      137.805 
-9.56324e-06      9.28657     -124.648 
-9.53303e-06      11.2776      133.059 
9.41365e-05      8.12715      147.055 
-9.52758e-06      8.37235      14.1047 
-0.000145319      11.0598     -53.2335 
-2.65466e-05      10.1289      56.0262 
-0.000103196      9.19175      92.8685 
2.71442e-05      11.1981      153.250 
0.000168456      12.3747     -47.7501 
-5.28757e-05      6.96133      85.5487 
-9.26470e-06      6.92724     -103.353 
0.000132000      7.12871      99.0419 
-5.20298e-05      10.1888     -154.292 
1.83450e-05      8.27755     -55.2352 
-9.22036e-06      7.79061      26.3676 
-9.22642e-06      8.53966     -151.151 
4.40721e-05      5.17646      37.6208 
-1.82655e-05      10.9824      21.4706 
5.28484e-05      9.06861     -15.4772 
3.48097e-05      10.5759     -156.247 
-2.48373e-05      10.8659      159.530 
2.43663e-05      10.0359      139.932 
-4.33586e-05      8.29036     -7.48395 
-1.79518e-05      10.4630      47.7119 
9.10734e-06      8.17406     -158.015 
9.06619e-06      8.93982     -65.2699 
-4.37842e-05      12.7020      133.851 
-6.10827e-05      11.5073     -122.365 
9.06002e-06      6.13124      54.9620 
-0.000145344      11.0440      118.559 
0.000342752      13.3978     -139.844 
-8.98657e-06      8.28641      120.773 
1.76444e-05      3.13469     -167.474 
8.80740e-05      9.90662      24.7015 
-2.60228e-05      7.40908     -87.2135 
-2.62892e-05      9.29765      61.6169 
-3.35479e-05      9.31476     -124.680 
1.77103e-05      10.0804      63.7382 
1.77847e-05      7.28515     -131.216 
8.93319e-06      5.56741      2.88169 
-0.000299218      12.2144     -34.0542 
-3.38688e-05      8.62783     -45.7506 
-1.74362e-05      13.4998     -48.3032 
-3.30625e-05      10.5125     -37.5030 
-4.96014e-05      7.66238      58.8832 
8.88189e-06      10.5944     -156.291 
4.08212e-05      7.68459     -164.916 
0.000364217      12.8140      139.748 
8.85088e-06      11.7537      150.206 
3.31733e-05      3.14043      179.630 
-5.67887e-05      7.28305     -150.197 
4.11324e-05      11.8979     -136.567 
-4.09987e-05      14.2293     -46.0234 
2.56010e-05      8.18197     -55.9572 
-1.68828e-05      9.16151      173.354 
2.52923e-05      8.86399     -102.909 
7.36786e-05      7.26992     -131.322 
-0.000101108      12.4569     -35.1950 
8.67144e-06      10.1664      140.108 
8.69465e-06      11.4502      152.542 
8.65053e-06      3.73119     -172.605 
2.53675e-05      5.56846      3.08989 
6.62601e-05      11.3994      148.121 
4.96615e-05      13.0403      137.796 
-6.49890e-05      7.76440      126.516 
8.57155e-06      6.05646     -6.25945 
-0.000217615      9.56648     -5.64038 
-8.56786e-06      12.7031      133.724 
-5.79427e-05      12.1615      41.1324 
9.96893e-05      10.5412     -136.768 
-4.05415e-05      4.32902     -141.757 
3.30297e-05      11.6575     -54.9176 
-1.66435e-05      12.4367     -127.550 
-2.52000e-05      13.9360     -46.6865 
2.51624e-05      12.3324     -47.8262 
8.48057e-06      11.4166      148.175 
-3.25836e-05      9.93212      32.2504 
4.74465e-05      10.0533      63.7907 
7.03114e-05      12.9103     -137.511 
0.000119066      10.1342     -72.7806 
0.000142606      7.66069     -165.019 
7.73136e-05      11.7458      150.074 
1.65981e-05      8.18819     -55.6502 
-7.89137e-05      8.43809      68.2989 
-1.63175e-05      12.6642      133.144 
2.83891e-05      5.12208      133.100 
-5.58380e-05      13.4981     -48.1818 
0.000173306      11.4853      152.856 
7.11388e-05      9.08814     -15.4431 
8.41584e-05      8.44489     -58.7577 
-2.46854e-05      11.0603      45.7339 
-8.35706e-06      12.5729     -135.322 
8.35813e-06      7.07730      104.234 
-8.35054e-06      9.48453      85.8895 
-2.40854e-05      3.24073     -91.0614 
-7.85732e-05      13.4927     -135.719 
-8.34086e-06      11.2628      133.129 
5.15428e-05      9.59732      55.6154 
-8.50431e-05      11.7935      58.1697 
-5.64035e-05      11.5353     -122.396 
8.33629e-06      3.76952      68.1944 
-2.43909e-05      10.2963      131.931 
6.91578e-05      11.2105     -149.915 
4.62517e-05      10.5126     -136.773 
-1.64010e-05      11.8107      58.2215 
-8.22804e-06      12.2486     -37.1697 
8.21985e-06      6.05862     -6.44285 
-0.000213540      12.7600      36.7782 
8.24234e-06      10.6639     -19.0482 
3.15346e-05      3.64049     -169.549 
9.19513e-05      13.1997      138.072 
-2.40592e-05      7.12371     -79.3221 
-1.59031e-05      7.90946      115.140 
-8.71802e-05      13.9221     -46.7472 
8.17121e-06      3.15890     -167.195 
6.78210e-05      12.7844      51.6065 
6.06589e-05      10.6026     -156.191 
3.20796e-05      12.2913     -47.9025 
-3.94188e-05      12.6432      134.488 
-0.000201566      13.0040      133.069 
3.94444e-05      5.56955      3.29031 
3.12945e-05      5.16458      37.4493 
8.11833e-06      6.58668     -96.7979 
-8.11812e-06      11.9963     -37.0039 
6.90249e-05      10.6764     -18.9100 
3.10862e-05      11.4224     -54.3354 
-8.04183e-06      10.1398      55.9348 
-2.77513e-05      5.57105     -167.562 
8.04228e-06      7.11507      108.687 
-3.05423e-05      8.72506     -164.307 
-3.91920e-05      10.7535      58.6159 
-8.00523e-06      9.21225      132.977 
-1.56024e-05      12.9892      133.130 
0.000247073      11.4060      148.261 
1.44730e-05      11.7289      150.026 
-2.31076e-05      7.68722      73.2172 
-0.000111576      10.2151     -154.237 
4.62702e-05      5.10877      132.941 
-1.57933e-05      5.60789     -84.2711 
-3.09503e-05      9.90604      28.3219 
-7.96965e-06      5.82015      22.4187 
-4.53552e-05      12.2324     -37.2270 
-7.71327e-05      12.1749      41.2042 
-0.000134653      13.7873     -42.5296 
-7.93751e-06      6.32878     -174.557 
-7.93267e-06      7.57681      115.481 
3.83159e-05      8.20430     -55.7271 
-3.77752e-05      9.50546      85.7761 
-3.82756e-05      7.64568      58.8077 
-7.89602e-06      10.1680      55.9042 
-9.10655e-05      12.1678     -126.984 
-7.88057e-06      11.4283     -45.9923 
7.85055e-06      5.01551      57.7057 
-0.000155166      14.2429     -45.9670 
7.86578e-06      11.6416     -54.8625 
-3.05672e-05      11.0743      45.8044 
7.83914e-06      12.2777     -47.9727 
1.52023e-05      7.09588      108.740 
1.53879e-05      8.88811     -103.003 
-1.53805e-05      8.61333     -45.6565 
7.78201e-06      6.04080     -6.65537 
-1.53242e-05      11.1882      136.087 
-5.25143e-05      10.3114      131.855 
-5.21153e-05      7.25643     -150.254 
4.51203e-05      8.74425     -6.96462 
-1.53400e-05      10.4480      47.6372 
-2.30359e-05      11.5628     -122.424 
-4.51762e-05      9.19076      92.7423 
2.29343e-05      13.1423     -133.582 
-7.72576e-06      6.96287      85.3887 
-5.94547e-05      9.54388     -73.6938 
7.72421e-06      13.7266      132.993 
-1.53099e-05      11.4147     -46.0627 
2.28683e-05      12.2360     -48.0475 
7.70302e-06      11.6528     -54.7840 
-1.52085e-05      10.1961      55.8737 
2.28920e-05      7.26734      28.6133 
-2.27048e-05      5.51212     -93.7466 
1.52198e-05      13.0689      137.790 
-7.66175e-06      7.41005     -87.0628 
3.74176e-05      11.5298     -60.1446 
7.66763e-06      11.4322      152.495 
1.51821e-05      10.7805     -66.9543 
-0.000102937      13.9159     -44.6505 
1.51331e-05      11.4039      142.768 
-2.05357e-05      7.46065      121.514 
-0.000103675      13.9087     -46.8057 
4.76302e-05      10.2020     -35.7488 
-3.72502e-05      10.0254     -144.090 
-1.48972e-05      8.27369     -7.64066 
-3.69349e-05      12.0570      40.5603 
7.57532e-06      8.68081     -82.1851 
2.98063e-05      11.3320     -125.372 
7.56843e-06      5.54932      3.30231 
9.55839e-05      10.7695     -66.8166 
-7.65290e-05      10.7702      58.6700 
-1.50939e-05      11.1918     -25.2833 
-2.95551e-05      8.15058     -80.5359 
0.000146162      10.6635     -18.0282 
2.96663e-05      7.25656     -131.202 
5.13832e-05      12.2225     -48.1182 
8.08658e-05      3.88376      28.2783 
-8.06445e-05      12.6293      134.550 
-4.43811e-05      11.2375     -64.9408 
-1.50349e-05      11.7517     -122.420 
2.97177e-05      5.55053      3.51111 
-7.49742e-06      7.97623     -44.5960 
-7.51066e-06      9.12014      10.7404 
-7.39645e-05      12.1877      41.2732 
7.48152e-06      13.1558     -133.643 
4.43463e-05      10.4213      16.7309 
2.93841e-05      11.0986     -140.630 
2.95836e-05      9.21812      16.8994 
-7.46350e-06      7.44339      121.596 
7.46977e-06      7.79274      130.106 
-0.000102208      10.4447     -162.847 
6.60613e-05      10.1209     -72.6371 
-1.48977e-05      11.7786     -122.449 
-1.48262e-05      9.74404      1.64603 
1.47939e-05      11.3255      25.5226 
1.47682e-05      7.27670      28.7482 
3.66617e-05      3.64408     -169.248 
-3.66923e-05      11.1829     -25.4199 
1.48205e-05      11.5201     -60.2287 
3.66862e-05      9.10767     -15.4091 
-2.94112e-05      10.2232      55.8445 
8.04258e-05      13.1839     -133.649 
-2.20127e-05      7.10759     -79.1314 
-1.47677e-05      10.8767     -28.9221 
-0.000109421      10.2485      4.25359 
-0.000123919      11.7957     -122.396 
-2.20459e-05      9.13931      10.7176 
-6.57072e-05      14.0226     -46.9060 
0.000145682      10.2530      177.093 
-3.64877e-05      9.23040     -146.758 
-7.37604e-06      1.56848      19.3625 
1.46811e-05      5.53030      3.52396 
3.41614e-05      7.32368     -71.8639 
-5.09650e-05      9.14771     -8.80476 
7.35174e-06      11.4236      152.358 
-7.34449e-06      7.93541      115.208 
-2.90949e-05      13.4786     -135.780 
1.45832e-05      12.2095     -48.1863 
-8.30079e-05      8.55928     -162.879 
-1.46046e-05      7.42614      121.678 
-2.91647e-05      10.2906      69.5207 
4.35530e-05      5.53159      3.73342 
-8.71377e-05      12.2011      41.3447 
7.29319e-06      6.01402      81.0054 
-2.90574e-05      10.8938     -28.8725 
-1.45500e-05      9.92322      28.2685 
3.11887e-05      7.77970      129.992 
-2.90708e-05      9.18985      92.6208 
7.29585e-06      13.2241     -45.6736 
-7.29275e-06      11.2477      133.343 
-5.08608e-05      12.1557     -126.907 
7.28832e-06      6.69391      128.203 
-9.43780e-05      9.37905      10.5664 
-1.45221e-05      11.0612      118.511 
-3.62987e-05      12.9551      129.614 
-3.64154e-05      9.15563      68.8718 
7.28609e-06      9.19307      16.8197 
3.63028e-05      10.4400      16.7000 
0.000130872      10.5172     -166.811 
-1.44840e-05      12.6435      134.615 
-7.26119e-06      11.1877      135.940 
2.17910e-05      13.1862      138.137 
-0.000138094      12.7722      36.8510 
-9.44345e-05      13.8307      135.000 
3.63270e-05      11.4063      152.312 
-2.90559e-05      9.98784      77.7462 
-1.44977e-05      11.2293     -65.0310 
8.72787e-05      11.4934      152.990 
-0.000123564      14.2555     -134.659 
-7.26298e-06      8.57945      84.5143 
-2.90641e-05      10.5312     -13.9570 
-1.44977e-05      12.7583      136.018 
0.000145343      12.8295      139.807 
-7.25999e-06      7.08770     -79.1005 
-2.17072e-05      9.56332     -73.7279 
2.17275e-05      7.28647      28.8878 
4.35099e-05      3.46713      129.388 
1.45079e-05      7.10871      99.0676 
1.45427e-05      8.36141      9.77594 
1.45046e-05      13.2375     -45.4892 
4.29851e-05      3.66780     -168.996 
2.90171e-05      12.6171      140.531 
-4.28113e-05      9.43139     -70.6813 
-7.22956e-06      9.61871      84.8707 
3.62608e-05      3.80454     -52.0497 
2.98349e-05      3.64791     -168.935 
-3.62888e-05      10.2134      20.2816 
-2.17933e-05      5.16274     -112.790 
-2.90848e-05      9.54958     -73.5772 
-3.35729e-05      7.67287      58.7537 
7.24541e-06      11.5575     -60.1075 
-7.24362e-06      9.03588     -141.379 
7.24599e-06      12.7564      51.6186 
-7.23832e-06      9.52717      85.6636 
-2.90545e-05      13.5072     -135.779 
-8.71954e-05      10.2470      4.14062 
-1.45223e-05      7.40954      121.757 
2.18001e-05      11.6156      61.6270 
-2.90669e-05      12.9722     -51.1331 
7.24118e-06      8.74181     -6.83281 
-0.000116493      8.60424      155.999 
-7.24862e-06      13.3278     -136.704 
1.45290e-05      10.1081     -72.4986 
-7.23937e-06      11.0477     -53.3177 
7.24312e-06      6.68187      128.072 
-4.36326e-05      12.0046      34.2732 
2.18438e-05      13.2007      138.194 
-2.90405e-05      13.9303     -44.5919 
2.90652e-05      10.7618     -66.9121 
3.57297e-05      5.51212      3.74663 
-7.25387e-06      10.3089      69.5587 
-1.45690e-05      9.52867      85.5466 
-2.18086e-05      13.3144     -136.765 
-7.24609e-06      11.0924      60.9849 
-2.17899e-05      13.8949     -46.8667 
7.26368e-06      13.1102     -134.814 
1.45544e-05      11.6623     -125.790 
4.60537e-05      10.1976     -35.9018 
-2.18941e-05      13.8017     -42.4749 
1.45513e-05      9.82075      65.8379 
-1.45753e-05      11.5807     -47.6576 
-1.45351e-05      12.0284      40.5497 
1.45467e-05      10.8742      132.167 
7.24685e-06      9.30328      104.184 
-4.38325e-05      12.2297      41.3533 
-2.18619e-05      7.27337     -150.330 
2.92038e-05      11.3887      148.208 
7.25979e-06      9.12648     -15.3766 
-7.25842e-06      9.55046      85.4349 
-7.26675e-06      5.15522     -112.590 
7.26526e-06      11.8819     -43.7718 
1.45931e-05      8.94014     -14.3757 
-1.45750e-05      14.3125     -45.6797 
2.92302e-05      13.3848     -139.910 
1.45745e-05      13.2517     -45.4267 
-7.28668e-06      4.45476      124.764 
2.15748e-05      3.78858     -51.8613 
1.46054e-05      10.1116      175.463 
-7.28949e-06      9.20843      92.4894 
-7.30171e-06      9.12769     -8.82423 
1.45974e-05      13.1378     -134.815 
5.15094e-05      3.67172     -168.685 
-1.46166e-05      10.1239     -165.469 
-2.69394e-05      12.3620      135.917 
-7.28965e-06      2.42050     -47.3368 
7.29794e-06      12.6327      140.590 
-7.29104e-06      9.22656      24.7309 
-7.29889e-06      8.59633      156.118 
-7.32320e-06      5.43406      114.109 
7.32295e-06      13.2011     -129.407 
7.31614e-06      10.1142     -72.3891 
-0.000135061      11.2134     -59.6839 
0.000192266      13.2040     -39.2828 
-4.45512e-05      13.5469     -48.5908 
-3.50680e-05      9.59173     -48.4632 
-9.33182e-05      12.1095     -124.163 
7.45166e-05      10.5018     -49.7908 
3.08724e-05      14.2153     -133.918 
-8.16105e-05      13.5317     -48.5340 
4.57382e-05      13.8201      133.768 
2.44189e-05      7.58893      85.0082 
0.000105910      10.5068     -112.026 
-0.000146713      12.0217      135.675 
2.40236e-05      6.72777      169.727 
-7.72467e-05      12.5840     -37.3797 
-0.000109835      9.12778      79.0097 
-8.13214e-05      10.2108      61.5760 
-3.03701e-05      9.60468     -48.3761 
4.14005e-05      10.1609     -97.2379 
2.17337e-05      10.2289      2.35445 
-3.54933e-05      5.70101     -170.308 
5.46071e-05      10.4892     -49.8722 
-2.24931e-05      10.9591     -130.930 
2.53236e-05      5.67289      3.83777 
6.92519e-05      8.86837     -103.032 
2.90225e-05      9.42766      175.618 
0.000133121      12.4637     -39.3343 
3.45489e-05      9.90340     -97.4271 
-2.60470e-05      10.8798      159.334 
4.21741e-05      11.8334      142.280 
-7.55113e-06      12.7241     -131.433 
4.81750e-05      3.87421      28.0144 
-5.68918e-05      10.8817      158.431 
1.42726e-05      7.58720      85.1606 
4.05926e-05      13.3262      43.5421 
8.69108e-05      11.1216     -157.030 
-0.000190991      5.25090     -137.317 
1.30173e-05      5.65140      3.65416 
2.75628e-05      7.76419      130.088 
7.28972e-06      9.85789     -174.995 
-2.11860e-05      9.82117      7.37045 
4.06328e-05      10.0237      69.6834 
2.64869e-05      13.2168     -39.3507 
-0.000156950      10.2273      92.1276 
-0.000225861      8.13296     -86.7577 
7.17275e-06      9.19514      116.900 
7.12750e-06      9.64489     -91.7834 
-2.08557e-05      10.9724     -131.010 
-7.10714e-06      10.5673      124.202 
-4.85090e-05      12.7393     -131.373 
-1.38906e-05      11.5059      119.236 
-2.02416e-05      9.70763      58.3101 
-9.85910e-05      9.76699      83.2981 
-4.73881e-05      8.82453     -85.7085 
-2.52431e-05      5.68178     -170.275 
1.35480e-05      10.2281      2.24105 
-4.60098e-05      10.8707      158.298 
-5.86021e-05      9.59010     -48.2987 
-0.000133191      11.2232     -59.5980 
3.94513e-05      13.4349      137.594 
-1.95332e-05      10.2476      61.4344 
6.89682e-06      9.56916      55.6470 
-0.000100010      9.25845     -146.722 
2.62487e-05      9.59305     -7.06776 
6.80386e-06      9.17707      116.957 
2.63099e-05      12.5020      137.788 
1.33090e-05      10.1660      112.681 
-1.97889e-05      9.22708      132.891 
-5.16964e-05      12.9600      39.3634 
6.74601e-06      9.93576      13.0287 
-6.72537e-06      11.6344      42.6319 
1.95195e-05      5.09396      133.096 
-0.000140954      11.5158      119.324 
-1.30936e-05      12.3242     -36.5552 
2.55817e-05      9.44634      175.750 
-8.48863e-05      10.9877     -130.940 
-1.92190e-05      5.23603     -137.166 
-1.28214e-05      9.34770      95.7728 
-2.48430e-05      11.6212      42.5611 
-2.49829e-05      9.39688     -56.1082 
1.89134e-05      10.2461      120.368 
1.27971e-05      13.8061      133.707 
-1.27255e-05      7.70662      73.2607 
1.22768e-05      9.26012     -90.4968 
1.90262e-05      7.24189     -131.303 
0.000125082      8.33691      47.4294 
1.26763e-05      7.89695      93.7757 
-1.90135e-05      7.75236      126.395 
-1.27385e-05      12.4059      133.628 
1.26289e-05      11.0910     -63.4349 
-1.26790e-05      13.5149     -48.3604 
6.38164e-06      9.91603      13.0551 
6.33286e-06      9.89414     -175.245 
6.30282e-06      7.29628      29.0271 
6.25872e-06      10.8048     -116.376 
6.26899e-06      9.18594      117.065 
1.24643e-05      10.3453      33.9679 
1.23945e-05      11.6051     -59.9004 
-6.23703e-06      8.15318     -86.7658 
3.60454e-05      12.5156      137.719 
-6.22827e-06      5.60597     -84.4695 
6.23318e-06      10.4695     -103.027 
-6.19223e-06      7.39838      133.574 
-6.20086e-06      12.7880      136.267 
6.18644e-06      10.8909      151.600 
6.19060e-06      9.19974     -126.870 
-0.000102037      10.5512     -34.2619 
-0.000249470      9.78875      83.1937 
2.68790e-05      9.91433     -175.255 
7.06358e-05      12.5170      137.850 
7.11845e-05      7.32346      29.0837 
-1.36486e-05      10.1840      61.6240 
3.87991e-05      5.69236      3.82463 
-3.18711e-05      10.5626      124.353 
-3.24606e-05      9.06076      51.1823 
6.80716e-06      9.88331     -97.4423 
7.39844e-05      7.91587      93.6197 
-6.27774e-05      5.55127     -167.517 
-5.00410e-05      12.6084      133.008 
-2.58215e-05      3.45566      73.8752 
-3.14850e-05      8.15382     -80.4007 
-9.11578e-05      7.55589      138.970 
8.50523e-05      6.50579     -135.248 
7.93296e-05      8.89269     -103.130 
6.46923e-06      10.7340      22.4560 
-7.28347e-05      12.7740      136.333 
1.85606e-05      12.0845     -52.5971 
-4.95443e-05      9.86937      28.1745 
6.03954e-05      3.84716      27.8996 
-3.07432e-05      8.82601     -85.5822 
1.86046e-05      8.29955      98.8730 
-4.76259e-05      8.62207      156.052 
-6.32733e-06      10.1744      61.7244 
5.45665e-05      10.7521      22.4162 
-9.34184e-05      12.5685     -37.4336 
3.57467e-05      11.1001     -63.3414 
-1.22431e-05      7.73606      126.484 
5.03047e-05      9.93212     -175.381 
1.24867e-05      10.9020     -144.183 
-1.23836e-05      7.55793      139.187 
1.21782e-05      10.6364      142.871 
6.11855e-06      7.73569      171.976 
-6.11246e-06      4.18991      79.5474 
-6.10488e-06      5.64279      102.902 
4.91900e-05      8.18747     -56.1541 
4.77258e-05      8.13295      147.245 
-1.20859e-05      7.71248      73.1165 
-1.20901e-05      13.5165     -48.4771 
6.07195e-06      9.18414     -126.943 
6.48276e-05      10.8650      151.405 
-6.59794e-05      10.2675      40.7353 
-2.40275e-05      3.36029     -90.3455 
7.19623e-05      10.4417     -154.958 
-5.41313e-05      12.0667     -125.693 
-1.20222e-05      6.00659      12.6942 
3.58970e-05      10.8906     -144.266 
6.00657e-06      10.0167      69.7921 
9.88663e-05      9.88071     -97.3258 
-3.22977e-05      8.21230     -27.5625 
6.36631e-05      5.54440      44.1226 
0.000225236      12.4610     -39.4654 
-6.54023e-06      8.87021      98.1657 
-6.52209e-06      9.87384      170.556 
3.04436e-05      5.94590      49.7760 
-3.13376e-05      8.84473     -85.7184 
-0.000147574      4.19349      79.2852 
1.25052e-05      9.17721      116.678 
-0.000156507      9.02064      51.3015 
5.42055e-05      10.8553      39.4658 
-6.23638e-06      12.3442     -36.3697 
7.79761e-05      8.30258      99.0060 
1.21689e-05      8.10559      147.291 
4.15038e-05      11.6220     -59.9486 
5.33205e-05      7.33001     -71.7134 
-1.20683e-05      13.5335     -48.6551 
-4.93861e-05      8.86736      98.0362 
-5.07521e-05      6.79315      65.4733 
0.000100070      11.8406      140.070 
7.57415e-05      6.05054     -7.40353 
-7.85906e-05      7.65619      58.6780 
0.000146569      7.33333      29.2220 
2.99843e-05      10.2389      120.523 
3.57886e-05      10.5041     -49.9408 
-5.92359e-05      7.47126      121.647 
-6.68233e-05      7.30064     -150.276 
-2.98452e-05      8.17379     -80.4244 
-6.40425e-06      12.3605     -36.3141 
-1.22143e-05      9.89383      170.576 
-6.12494e-06      10.8688      159.198 
7.21145e-05      9.95071     -175.506 
1.77928e-05      9.54657      160.159 
7.76427e-05      7.57699     -41.8970 
-6.54289e-05      5.17062     -112.997 
-6.00438e-06      8.55797     -46.2328 
5.99623e-06      5.67162      3.64112 
-6.77393e-05      12.3806     -36.1295 
-6.00829e-05      12.5809     -37.5069 
-4.14455e-05      5.53149     -167.472 
4.74065e-05      5.99086      81.1665 
-5.34996e-05      12.6232      132.945 
-4.70746e-05      9.85151      28.2301 
1.77482e-05      9.18599      116.787 
-1.18099e-05      3.96804     -131.328 
-4.20171e-05      8.84621     -85.5923 
-5.30597e-05      8.54448     -46.3273 
2.93263e-05      13.4076      137.722 
-2.47458e-05      8.22960     -27.4996 
1.20551e-05      8.98024     -90.5123 
-5.97455e-06      8.35448     -27.3614 
8.32462e-05      9.85805     -97.2240 
3.03440e-05      4.68013      18.4320 
-4.78937e-05      12.7511     -38.0569 
-6.04765e-06      3.46134      73.5530 
-6.01020e-06      9.57714     -48.3858 
-5.96973e-06      9.39140     -55.9366 
-2.35778e-05      8.92917     -77.5814 
-2.95411e-05      9.89053      170.691 
1.75419e-05      10.2134     -35.8377 
-1.16570e-05      8.58703     -154.031 
-5.82787e-06      8.55356     -163.004 
-2.31381e-05      12.9729      39.4326 
-6.13028e-06      8.33716     -27.4230 
1.77646e-05      8.98008     -90.3830 
-1.18115e-05      8.68179     -32.7739 
1.73489e-05      2.95963     -161.078 
-1.73329e-05      6.01108      12.8826 
1.72812e-05      6.03403     -81.0355 
-1.15633e-05      5.79028      111.691 
-1.72805e-05      8.40302      138.570 
1.17460e-05      8.46157     -58.8262 
-1.16764e-05      9.73488      58.2690 
-2.32491e-05      12.5648     -37.5632 
5.78122e-06      2.96626     -160.708 
-1.24102e-05      6.80158      65.3180 
-5.88478e-06      10.5459      124.415 
1.17542e-05      7.52731     -177.412 
5.80276e-06      8.11655      147.171 
1.16154e-05      5.13594      133.265 
1.15554e-05      13.3944      137.784 
-5.74096e-06      8.66539     -32.8437 
6.21518e-06      11.8536      139.995 
6.02718e-06      5.51575      44.1181 
-5.92581e-06      5.70446     -170.108 
5.79519e-06      9.16030     -126.744 
5.72111e-06      13.6311      48.5708 
-5.73111e-06      10.8760      159.098 
5.72448e-06      10.5274     -136.849 
-5.70189e-06      12.0356      135.740 
-5.70265e-06      12.7881      136.393 
! Tentative model.
! Flux (Jy) Radius (mas)  Theta (deg)  Major FWHM (mas)  Axial ratio   Phi (deg) T \
! Freq (Hz)     SpecIndex
-6.54669e-06      9.78897      83.1944 
