! Center RA: 12 21 31.69052,  Dec: +28 13 58.50019 (2000.0)
! Established model.
! Flux (Jy) Radius (mas)  Theta (deg)  Major FWHM (mas)  Axial ratio   Phi (deg) T \
! Freq (Hz)     SpecIndex
 0.0995438      0.00000      0.00000 
 0.0267811    0.0202604      180.000 
0.00750221    0.0286526     -135.000 
0.00227706    0.0720098      56.4755 
0.00493164    0.0896014      63.6495 
0.00417970    0.0446338     -153.004 
0.00496105    0.0562440     -135.000 
0.000569336    0.0446338      63.0042 
0.00138941     0.107434      68.2729 
0.00213654     0.121759      80.4216 
0.00120131     0.140322      90.0000 
0.00279494    0.0848966      45.0000 
0.00326345     0.181229      96.4188 
0.000784430     0.161111      97.2243 
0.000702531    0.0286526      45.0000 
0.000122458    0.0562440      45.0000 
0.000814412     0.201375      95.7743 
0.000436167     0.223431      100.253 
0.000802735     0.243395      99.4042 
0.00149495     0.262662      98.7088 
0.000836075     0.141777      98.2159 
0.000701840     0.145849      105.824 
0.00167093     0.282706      98.0871 
0.000597278     0.152624      113.162 
0.00184590     0.100252      36.7841 
0.000107148     0.483985      97.1250 
0.000798661     0.506166      99.1272 
0.000352511     0.161670      119.778 
0.000713232     0.306099      101.310 
0.000313057     0.286260      102.105 
0.000483162     0.302778      97.5477 
0.000227602     0.100252      53.2159 
0.000379221     0.450910      102.787 
0.000201540     0.455823      105.272 
9.25732e-05     0.164706      103.973 
4.88158e-05     0.310708      104.976 
0.000700612     0.470689      102.241 
0.00183724    0.0720098     -123.524 
4.67753e-05     0.316312      108.392 
0.000271900     0.860287      107.566 
0.000126806     0.184432      102.453 
0.000133100     0.349107      113.700 
0.000127994     0.375627      115.183 
0.000639463     0.885104      108.435 
0.000119742     0.357396      116.565 
0.000182820     0.384685      117.915 
0.000825468     0.486913      99.4914 
0.000111281     0.766529      105.152 
0.000134550     0.189835      108.435 
9.62782e-05     0.302778      82.4523 
0.000272971     0.910821      109.241 
0.000228418     0.742542      104.036 
0.000101164     0.366905      119.396 
6.71708e-05     0.325253      79.3641 
0.000856578     0.747714      105.543 
0.000245486     0.923634      107.640 
0.000257371     0.329594      75.9005 
3.19855e-05     0.394577      120.515 
0.000541709     0.116465      31.0271 
0.000313961     0.377263      122.078 
0.000137240     0.107434      21.7271 
2.97532e-05     0.929974      108.830 
0.000209349     0.170734      110.586 
0.000442237     0.942245      107.281 
0.000253778     0.387976      124.520 
0.000327639     0.334882      72.6613 
9.20877e-05     0.880267      111.293 
0.000441539      2.31808      79.5558 
0.000585664     0.961610      106.922 
0.000560011     0.126477      18.3275 
0.000293428      1.44681      95.5657 
0.000244686     0.503350      96.8496 
0.000461379      3.07012      114.228 
0.00103552      8.16475      106.213 
0.000463798     0.404832      122.895 
0.000158001     0.887825      112.512 
0.00106028      2.05941      82.1888 
0.000470219      8.11580      107.498 
0.000230283      7.57411      105.468 
0.00104759    0.0896014     -116.350 
0.000355545      3.09905      108.435 
0.000429539      1.42665      95.6446 
0.000307937      2.31449      80.0491 
0.000122161      7.59364      105.427 
0.000864303      9.55034      108.436 
0.000314569     0.869143      113.023 
8.43565e-05      3.09693      114.416 
0.000553629      8.34869      108.433 
0.000359143      8.15933      106.081 
0.000324857      6.77026      106.828 
0.000391170      7.58827      105.280 
0.000102206     0.178866      116.673 
0.000373770      7.35823      106.909 
0.000393988     0.310708      75.0240 
6.82373e-05     0.399806      126.913 
2.98307e-05     0.316312      71.6080 
0.000115217     0.786014      82.7054 
0.000184861      3.25366      110.889 
0.000192248      7.59453      111.632 
0.000624078     0.981011      106.578 
9.87083e-05      9.67868      107.311 
1.46148e-05      8.30842      102.227 
4.20481e-05      3.10504      114.744 
1.44643e-05      8.28862      102.257 
0.000401621     0.447333      116.608 
0.000220117      8.31273      102.364 
0.000407578      3.09270      108.079 
2.73871e-05    0.0633577     -108.650 
0.000518663      2.89897      117.971 
0.000290422      7.60202      111.774 
0.000412450      7.93068      113.009 
0.000136344      7.40671      115.594 
0.000243236      8.09648      107.542 
0.000384031      2.33445      80.1350 
0.000337821      7.90510      112.934 
2.60890e-05     0.457182      113.199 
0.000584950      7.42499      115.527 
0.000222901      8.29294      102.394 
0.000170460      9.65332      107.232 
2.57921e-05     0.788842      81.2456 
0.000692210      6.75087      106.878 
8.11267e-05     0.188432      121.981 
2.47658e-05     0.808873      81.4640 
0.000291628      9.18989      108.396 
8.09284e-05      7.41661      115.391 
0.000313182     0.877265      114.241 
6.81311e-05     0.396866      130.860 
5.66174e-05      3.07849      114.572 
0.000121266     0.812127      80.0503 
0.000106631      7.69934      103.062 
0.000184076      7.37689      106.864 
0.000245008      7.71835      103.030 
0.000256271      3.26094      111.221 
6.39228e-05      8.42546      100.670 
0.000197905      7.21988      105.424 
0.000100003      1.42870      96.4233 
0.000133455      9.64755      107.121 
3.17670e-05     0.714035      101.334 
0.000163948      8.44914      100.780 
-0.000302996      8.78347      106.538 
7.93820e-05      7.25674      112.181 
4.99396e-05      3.11358      115.083 
0.000223024      8.29731      102.530 
-0.000442044      6.66013      104.079 
0.000105996      8.14315      101.476 
0.000221787      7.68203      113.964 
5.52271e-05     0.199903      126.913 
7.40048e-05     0.815725      78.7004 
2.79811e-05     0.710331      99.7310 
0.000121980     0.412159      119.085 
0.000281046      7.59146      111.971 
3.05195e-05      7.69479      102.915 
2.79631e-05      7.61443      102.284 
0.000161101      9.19573      108.119 
7.99170e-05      9.61066      106.815 
0.000124635      3.08665      114.902 
0.000392201      8.37182      100.181 
0.000124760      7.27551      112.121 
0.000239749      3.08670      107.735 
0.000223517     0.306099      78.6901 
5.26968e-05      2.90853      118.324 
-0.000182841      8.17499      111.230 
3.55835e-05      7.37852      110.304 
0.000121802      8.09040      107.405 
0.000245408      7.61015      102.135 
-0.000227100      6.57652      106.063 
0.000101260      9.70866      106.271 
-0.000109094      2.67061      112.920 
8.99617e-05      1.41176      97.3290 
4.21028e-05      8.95063      106.086 
-0.000426092      6.92756      112.938 
0.000187214     0.895778      113.709 
0.000403918      8.70075      110.312 
0.000136911     0.707189      98.1129 
8.00096e-05     0.839713      77.6156 
6.54200e-05      7.21452      105.269 
2.45126e-05      7.41549      115.735 
2.44390e-05     0.172194      125.422 
0.000171121      1.38821      101.632 
0.000261035      8.36720      108.391 
0.000233055      8.30157      102.662 
5.35514e-05      9.58613      106.733 
0.000197015      9.58032      106.617 
8.09741e-06      9.17686      108.552 
0.000312210      8.96938      106.051 
8.77979e-05      7.37104      106.714 
1.56504e-05     0.212689      131.281 
-0.000209479      2.67856      113.319 
4.46369e-05      9.28358      106.520 
3.79309e-05      9.17065      108.832 
-1.55928e-05      8.48772      110.699 
-0.000376766      8.78905      106.660 
0.000235999      8.22240      113.510 
0.000513827      7.23407      105.227 
-5.17222e-05      8.48058      110.571 
-0.000605494      6.91988      105.762 
0.000178695      7.24940      112.038 
0.000183244      8.70279      104.644 
1.47206e-05     0.184676      130.551 
5.19618e-05      7.75440      107.876 
-7.41548e-06      6.92524      113.304 
0.000291200      6.75678      107.042 
-0.000279003      2.82049      108.184 
4.21634e-05     0.844290      76.2725 
1.19351e-05      7.06213      110.384 
0.000258615      7.06922      110.538 
9.92588e-05      3.06076      114.724 
7.41736e-05      2.33801      79.6458 
0.000122350      8.37243      113.808 
0.000174673      9.20272      107.844 
-0.000435671      6.57115      105.900 
2.70827e-05     0.226037      135.000 
-0.000185310      8.49955      110.523 
2.62714e-05     0.835602      101.027 
0.000100100      9.15219      108.872 
2.69169e-05      7.91272      113.064 
7.42435e-05     0.402700      116.565 
9.78869e-05     0.986983      107.705 
7.79947e-05      7.42391      116.912 
0.000130843      9.72811      106.237 
0.000155724     0.284207     -140.679 
5.18825e-05      7.70055      113.902 
6.49753e-05      7.13045      113.473 
1.99723e-05      8.30603      102.798 
-0.000112139      8.20024      111.308 
5.62212e-05     0.100252     -126.784 
0.000231271     0.863255      76.5798 
1.95185e-05      8.30429      103.935 
0.000142214      7.93862      113.143 
0.000100137      9.27805      106.405 
6.54096e-06      7.43424      115.326 
6.53958e-06      8.30974      103.499 
5.56185e-05      7.71381      102.883 
0.000274992     0.516406      35.5377 
0.000198794      1.40070      99.8711 
-0.000321248      2.66066      113.485 
0.000207465      8.30919      104.070 
4.64928e-05      7.44393      115.118 
0.000198640      7.70878      114.040 
9.06326e-05      3.07345      108.196 
1.74023e-05     0.465536      115.491 
0.000144459     0.903799      114.842 
-9.45579e-05      1.14557      73.7968 
5.38041e-05      2.35794      79.7343 
0.000373236      6.73742      107.093 
0.000209829      7.11968      113.682 
0.000163159      7.43276      117.046 
6.79546e-05      3.26805      111.540 
2.90098e-05     0.327950      142.343 
0.000104307      7.98499      114.253 
1.19342e-05      1.39737      99.0526 
0.000154805      8.68319      104.678 
0.000112070      3.03390      114.537 
6.05816e-05     0.733911      101.023 
2.32978e-05      7.07635      110.691 
-0.000130681      6.98061      104.435 
-0.000270465      7.24202      108.185 
1.15925e-05      8.23051      113.639 
5.80094e-06     0.297155      70.3754 
9.08240e-05      8.19575      113.436 
0.000138918      2.36150      79.2685 
1.61102e-05      8.07834      102.729 
6.20861e-05      8.64073      99.5932 
-0.000184248      9.38596      108.897 
-8.64209e-05      6.93838      112.719 
2.62424e-05      8.34844      100.074 
9.44109e-05      7.63423      102.252 
-0.000127354      1.12613      73.5092 
1.09187e-05      8.29593      103.096 
0.000130827      2.88987      117.630 
3.49315e-05      8.12330      101.504 
0.000114687     0.993090      108.777 
2.61102e-05      8.29153      102.965 
1.06246e-05      8.68458      110.774 
5.32178e-06      8.10973      107.362 
3.94717e-05     0.344213      144.404 
-0.000109116      3.08861      119.056 
-0.000103918      7.80936      115.644 
-6.93288e-05      8.55703      108.392 
1.03109e-05      9.69671      107.650 
2.52042e-05      7.42431      115.876 
-0.000146863      7.97545      108.571 
-3.04428e-05      6.93087      112.570 
4.87992e-05      8.67259      110.942 
2.91956e-05      7.22372      111.947 
-1.98147e-05      8.19317      111.181 
3.90909e-05     0.269397     -138.048 
-8.29230e-05     0.429314     -27.8192 
-0.000101994      8.55220      109.535 
1.96752e-05      2.04222      81.5483 
5.83815e-05      7.43286      116.702 
1.01465e-05      7.22877      105.072 
3.87314e-05      8.52500      112.775 
3.38003e-05      7.45255      115.259 
2.90721e-05      9.72246      106.123 
0.000134677      6.73149      106.928 
4.88597e-05     0.878599      78.1718 
7.22397e-05      8.70580      110.016 
9.88144e-06     0.737890      102.510 
-9.94846e-06      6.93667      114.347 
1.93811e-05      9.13936      109.029 
-5.29431e-05      8.79488      106.787 
4.99467e-06      8.69374      110.187 
3.85740e-05      8.28701      102.828 
4.79981e-05     0.394056      113.929 
2.88482e-05      7.36546      106.568 
3.38108e-05      7.93735      105.192 
-2.90805e-05      6.93445      112.202 
-2.39384e-05      6.94505      114.499 
2.38367e-05      8.24653      113.892 
2.35445e-05      8.39097      113.752 
-9.58739e-06     0.753057      140.377 
2.82750e-05     0.885454      115.392 
-3.29734e-05      7.25368      116.353 
-1.42046e-05      6.93012      111.682 
4.75705e-06      3.06741      107.850 
-2.34598e-05     0.765647      139.253 
1.87071e-05      7.97669      114.120 
1.40178e-05      3.04237      114.884 
1.87236e-05     0.874671      79.4709 
-1.86349e-05      6.92266      111.526 
4.69846e-06      2.93600      114.122 
4.65375e-06      7.94268      105.333 
4.62514e-06      8.25476      114.021 
4.62208e-06      2.91821      114.278 
-0.000778673      4.51227     -83.1232 
0.000447265      6.14438      119.652 
0.000395876      4.47302      120.351 
0.000349198      6.13476      119.494 
0.000440754      4.87952     -7.29769 
0.000424751      6.83683     -30.0179 
0.000576502      8.55717     -158.470 
0.000173244      11.0608     -126.250 
-0.000517732      12.8972     -131.226 
0.000267747      10.4638      164.024 
-0.000454468      3.38572      75.6404 
-0.000357896      7.62302     -17.2470 
-0.000215993      11.8163      49.4607 
-5.63226e-05      10.1533     -80.7027 
-0.000251677      5.38087     -179.145 
0.000312578      7.78481     -140.421 
-0.000161631      8.80839      9.80496 
-0.000392958      10.1333     -80.6842 
0.000108129      11.0723     -126.332 
-0.000254818      10.3104     -135.708 
-0.000104341      7.32469     -36.3381 
-0.000344929      8.91987     0.130141 
0.000244701      7.69674      52.1760 
0.000251453      9.05259      129.349 
5.28625e-05      9.84580      74.3251 
-0.000337059      8.63742      129.554 
0.000248056      2.70144     -55.2505 
0.000248672      9.77594      21.1048 
0.000321303      11.0886     -126.270 
0.000380886      4.66769      164.599 
0.000192702      9.84035      74.4387 
0.000194098      9.23754      147.375 
-0.000286998      8.83182      9.91210 
0.000332450      9.87488      8.73722 
0.000139993      11.5603      123.139 
0.000269526      10.3985      16.3072 
-0.000142100      8.27369     -150.771 
-0.000189448      8.08218      123.495 
0.000279549      13.5336     -134.820 
-0.000185750      9.33926     -78.1348 
-9.53113e-05      11.8289      49.3888 
-0.000324991      9.01401     -86.8218 
-0.000144019      7.61704     -17.1015 
-0.000230810      8.93438      16.6527 
-0.000773420      7.13090      93.2153 
-0.000141764      13.9725      134.767 
0.000186967      10.5782     -140.140 
0.000229149      10.8765      37.2280 
-0.000274298      11.4217      40.3849 
0.000226956      11.0375      40.4450 
-4.82506e-05      1.61295     -107.322 
0.000139450      8.97001     -33.2660 
-0.000181710      10.8209     -37.7178 
0.000236714      13.8185      44.0033 
0.000181081      4.06039      179.714 
9.23508e-05      4.54729     -18.1928 
0.000182397      7.76921     -140.326 
-9.29142e-05      9.54439     -91.8022 
4.73990e-05      3.44357      83.3303 
-0.000182594      9.34173      145.730 
4.70945e-05      8.09574     -161.115 
-9.07926e-05      7.08626     -2.42762 
9.12044e-05      4.04140      40.7836 
-0.000223917      11.4855      125.072 
0.000135613      3.04146     -88.1196 
-4.66547e-05      2.38056      179.043 
-0.000177685      1.60703     -106.633 
0.000134459      10.3512      158.940 
0.000178643      9.04023      129.253 
-0.000179397      5.94020     -90.3836 
0.000177808      9.26019      147.613 
-9.07567e-05      12.8991     -131.103 
-9.05698e-05      3.73927     -154.669 
8.97734e-05      9.36197      86.0796 
-4.58235e-05      11.4880     -126.792 
0.000133410      3.44598      82.9957 
-0.000177359      9.10222     -94.0324 
-4.57131e-05      8.29858     -151.027 
0.000132648      9.79414      21.0637 
9.04201e-05      10.5184     -153.095 
0.000132397      10.8390     -56.8963 
-0.000132795      11.5556      121.051 
0.000132417      9.26289     -91.4855 
8.86258e-05      10.2367      47.7690 
-8.81419e-05      3.37324      48.8512 
-8.89381e-05      8.81186      9.93478 
8.81983e-05      12.3373      124.232 
0.000137590      9.29825      19.2143 
-4.43115e-05      6.49130     -50.3751 
-4.43215e-05      2.40049      178.567 
-4.42658e-05      10.3249     -135.786 
6.01167e-05      12.5383     -48.4257 
-4.40868e-05      9.06095      27.1868 
8.70277e-05      11.3710      35.4783 
4.38661e-05      7.02398      1.95911 
-4.37985e-05      9.16935      136.947 
8.64450e-05      10.5276     -152.997 
-4.34882e-05      6.52815      81.7190 
4.35176e-05      7.96582      33.5314 
4.34417e-05      8.58453      49.6301 
-4.30991e-05      9.56527     -91.9151 
-4.31123e-05     0.707189     -81.8871 
4.31141e-05      10.4833      164.055 
4.29786e-05      9.07999      58.2355 
-4.28999e-05      6.79851      83.9175 
-4.27031e-05      7.35500     -46.1037 
0.000158622      11.1006     -126.354 
4.26029e-05      1.57042      6.58508 
4.25144e-05      7.78757     -140.631 
-0.000437319      11.6546     -56.6916 
0.000467835      9.11011     -66.5876 
-0.000233257      4.87604      56.3784 
-0.000475476      4.03167     -46.4027 
-0.000457013      9.33178      27.9931 
4.62940e-05      7.85398      25.6519 
4.60814e-05      4.03378     -158.777 
0.000132120      13.1401     -47.8377 
8.80981e-05      5.70882      163.726 
-0.000318862      11.6936      137.635 
-0.000240707      9.05172      38.5411 
-4.48860e-05      12.2159      40.4184 
0.000393863      4.01490     -158.672 
0.000233990      9.51097     -150.523 
0.000161022      7.83572      25.7160 
-8.63887e-05      5.56166      54.3671 
-0.000197480      7.61539     -73.9902 
0.000233831      3.09794     -136.305 
0.000120178      3.92980      51.6136 
-0.000270690      4.90340     -67.2021 
-0.000660802      12.2004      40.4801 
0.000157764      13.1251     -47.7783 
-0.000219548      11.5014     -30.3996 
-0.000159496      9.13108     -58.4338 
4.24930e-05      8.11336      27.4490 
0.000119583      3.73494     -165.740 
0.000241149      7.08285     -103.054 
0.000228018      9.15347     -75.4477 
0.000154064      10.7253     -57.6453 
-0.000119774      9.31412     -35.7389 
7.93446e-05      4.00721      63.3054 
-0.000150561      4.88729      56.1806 
-0.000185173      5.23756     -107.329 
0.000151614      3.76610      62.4802 
-4.04705e-05      5.14092     -144.020 
0.000112049      4.93842      166.414 
0.000354912      6.06095      90.9435 
-0.000174860      3.80175     -64.1127 
0.000177720      8.14068      27.5099 
-3.93919e-05      5.57305      54.2040 
-0.000109156      9.55946     -57.4726 
7.65690e-05      5.36005      90.2166 
3.86648e-05      9.08994     -72.7213 
3.86410e-05      4.23071     -157.187 
-3.85725e-05      6.51188     -137.489 
0.000420507      9.64206     -148.483 
-7.04013e-05      5.80824     -118.598 
-7.25333e-05      7.85920     -114.348 
-0.000246812      11.1064     -61.4974 
-7.34405e-05      5.12904     -144.203 
-3.74961e-05      5.50657      47.5073 
0.000142381      4.21273     -157.084 
0.000107367      7.68294     -172.672 
-0.000288238      9.28282      40.1045 
-6.99749e-05      5.90246     -91.5517 
-6.99761e-05      8.83732      116.332 
-3.68188e-05      6.42706     -137.522 
-0.000167787      9.29768     -35.8118 
0.000121246      12.3609     -48.9358 
0.000291713      11.0834     -64.4516 
7.09425e-05      11.1954      60.4590 
-0.000358984      12.5091     -129.877 
7.08744e-05      10.6473      150.644 
0.000220619      5.36016      90.4251 
-6.88486e-05      6.55315     -137.348 
-6.94348e-05      5.62039      53.5401 
0.000119582      9.02980     -51.0242 
0.000125278      10.7338     -45.3767 
-6.86815e-05      5.49165      47.3645 
-0.000358137      9.12049     -58.5423 
6.64553e-05      10.5931     -150.726 
-3.53617e-05      6.37621     -19.2324 
6.79241e-05      3.75458     -165.817 
0.000151532      9.33219      147.604 
3.50343e-05      5.72828      163.782 
-0.000239252      6.39844     -137.533 
-6.74433e-05      8.99630     -109.886 
0.000297606      11.3564     -134.502 
3.45877e-05      13.8173     -45.4092 
-0.000444479      13.2413      46.4673 
9.37600e-05      7.42130     -11.1884 
-0.000156797      3.81064     -63.8386 
0.000151353      3.32251      55.5455 
-6.67884e-05      9.42962     -42.2488 
-3.40339e-05      11.7086      137.701 
7.86969e-05      6.08017      90.7566 
-0.000132631      11.6281     -30.4920 
9.19714e-05      6.89145      42.9968 
0.000118891      13.1265     -47.9032 
-0.000190583      11.9828      136.555 
-9.56819e-05      6.38266     -19.3978 
0.000346377      10.6194      107.991 
-0.000128315      12.9384     -52.0315 
0.000206018      9.17309     -75.4795 
6.52710e-05      11.5447      145.374 
0.000198751      8.46383     -23.5354 
-0.000243477      13.3510      135.485 
-0.000409145      10.0014      38.7471 
6.54433e-05      10.6649      150.697 
-0.000384110      7.92682     -72.9802 
0.000189300      10.6105     -59.9063 
0.000124089      8.04258     -137.825 
-0.000203253      4.47239     -79.6969 
3.31325e-05      3.11262     -136.563 
-9.17040e-05      5.37463      135.905 
9.29579e-05      9.62296     -88.5701 
0.000176777      9.10237     -66.7003 
3.29456e-05      3.99815      63.5648 
0.000181348      7.70229     -172.690 
9.44080e-05      11.3567     -134.358 
5.95296e-05      10.4800     -32.6899 
9.38499e-05      4.20488     -157.338 
-3.25545e-05      11.6826     -56.6631 
-3.25261e-05      7.62936     -67.3342 
-0.000262904      11.4343      27.9542 
3.23453e-05      13.2210     -137.452 
-3.21811e-05      7.63085     -154.375 
-0.000171368      4.92925     -67.0728 
0.000201591      3.79309      62.3602 
-3.21603e-05      12.3145     -129.665 
-3.20566e-05      9.83859     -30.0067 
6.07168e-05      3.06329     -87.3745 
-0.000421383      9.52886     -42.1945 
6.13019e-05      4.97240      166.748 
5.94234e-05      13.8317     -45.4682 
-3.16710e-05      8.96448     -109.689 
6.06627e-05      6.08592      174.722 
-0.000164154      8.29333     -152.262 
-3.11788e-05      5.63246      53.3744 
0.000234886      3.75960     -165.517 
6.12105e-05      10.7774      69.5803 
8.79848e-05      7.84192     -157.032 
0.000297659      10.7348     -129.861 
0.000272789      13.2060     -137.393 
0.000179776      10.6377      150.735 
5.84641e-05      10.7361     -57.5540 
-3.05545e-05      12.1852     -35.1767 
-8.39842e-05      5.23156     -107.117 
8.65827e-05      11.0476     -147.719 
-0.000255249      11.8384      141.310 
-0.000202692      1.82563     -65.3943 
-0.000247375      12.9350     -51.9055 
-3.03468e-05      4.89818      55.9910 
5.88971e-05      9.72546      164.250 
-0.000300022      3.49953     -159.595 
0.000278393      9.49943     -47.6444 
0.000211746      3.95984      179.707 
-0.000158206      7.61259     -154.309 
-0.000451741      11.4937     -34.0760 
2.98472e-05      11.2130      60.5100 
0.000136187      8.21974     -90.0000 
-0.000187238      12.3016     -129.592 
0.000263405      13.7909      44.0013 
-0.000152459      10.0931      132.511 
-0.000111349      9.28584     -35.7105 
-0.000138669      8.95767     -109.567 
2.96296e-05      5.96598      92.4942 
-2.95643e-05      10.0373      161.528 
-0.000178838      11.7493      130.304 
0.000283043      3.47886      81.4032 
0.000488000      12.8668      131.345 
-5.62740e-05      9.84836     -30.1050 
-0.000192038      9.16447      95.6340 
-0.000498962      5.24466     -164.745 
-0.000135631      13.2694      46.4665 
8.22862e-05      8.05988      33.2551 
-0.000467569      11.9681      136.489 
-2.90013e-05      9.45852     -141.869 
-5.02936e-05      8.32003     -152.201 
0.000130652      10.7843      69.4832 
-2.87170e-05      6.24320      76.8557 
2.86187e-05      8.58462     -17.2106 
-0.000315525      10.3608     -118.098 
-2.85896e-05      8.84633      116.450 
0.000304272      9.61483     -148.525 
0.000257584      9.31004      19.0571 
0.000318159      10.3131     -40.5176 
-0.000202343      14.2706     -45.8522 
-5.43199e-05      10.0326     -20.7828 
5.32070e-05      4.18619     -157.232 
-0.000104627      9.47058     -141.776 
7.40664e-05      6.56271     -11.9575 
-2.79299e-05      5.50539      47.2094 
2.79169e-05      8.04122     -137.621 
-7.88066e-05      8.89514      134.727 
-0.000153346      7.47530      65.8355 
-5.10525e-05      7.37135     -167.620 
0.000239106      8.44595     -23.5883 
0.000169092      8.57864     -17.0814 
-2.76545e-05      6.48735     -32.0208 
5.39137e-05      13.3078     -50.3053 
-0.000167647      2.28527      175.989 
-2.74013e-05      6.91094      168.818 
-2.73160e-05      10.0539     -169.338 
2.73046e-05      6.06575      174.705 
-5.35147e-05      10.1758      28.5305 
-0.000561288      13.3649      135.544 
-0.000230653      13.3957      46.2710 
-0.000167570      13.4322     -130.591 
2.70714e-05      7.63487     -105.968 
-5.00883e-05      4.47605     -79.4417 
0.000185559      10.2766     -120.657 
-0.000142780      9.27026      40.0122 
-6.90104e-05      12.4485      43.6982 
-7.71721e-05      5.08365      11.5720 
9.65114e-05      7.72239     -172.709 
4.93926e-05      4.16765     -83.3830 
0.000283025      6.91583     -84.1898 
0.000227688      9.62388     -80.7933 
0.000103249      5.19106     -93.7546 
7.53598e-05      8.05705     -137.918 
0.000217682      10.2977     -40.5909 
-4.65026e-05      11.4736     -30.3635 
-0.000127034      6.83680      161.937 
5.16511e-05      8.83547     -65.8142 
-4.85414e-05      11.6715     -56.7462 
-2.64661e-05      11.3705      31.2595 
-0.000122635      6.75134      169.588 
0.000167492      9.13166      57.2515 
0.000137161      9.62346     -88.4540 
-0.000198786      8.80017      95.4753 
-5.05522e-05      3.40351     -113.547 
7.45627e-05      10.7070      45.9825 
8.85538e-05      8.15799      27.4466 
-0.000172148      12.1221      141.298 
-0.000122633      11.1956     -114.597 
0.000157669      8.11508      86.4693 
7.49023e-05      3.77849     -165.591 
-2.60985e-05      10.6959      114.407 
-0.000322418      11.4164      28.0018 
-0.000183283      10.3247     -25.2259 
-5.00567e-05      6.90704      168.983 
-2.59076e-05      11.5689     -127.484 
-2.58991e-05      7.64737     -67.3905 
2.58808e-05      13.3951     -136.028 
0.000111338      10.4971     -32.6301 
-0.000117537      10.0767     -169.249 
2.56798e-05      9.66481     -106.222 
4.90499e-05      10.5997     -18.3670 
2.56428e-05      11.6705     -133.679 
-0.000253673      7.72868     -27.4259 
0.000160941      7.83404     -157.168 
-0.000171046      3.91337     -23.8175 
2.55248e-05      9.74424      164.281 
-4.89587e-05      6.82458      161.724 
-0.000169890      11.6554     -30.5241 
4.97686e-05      13.3057     -50.1845 
2.53177e-05      7.62382     -105.675 
-9.56377e-05      10.1580      28.5851 
4.70152e-05      5.34036      90.8615 
-2.51833e-05      6.24784      76.6748 
-7.20690e-05      11.3538      31.3106 
-2.51912e-05      9.27848     -96.4359 
-7.30866e-05      9.00321     -110.007 
-0.000252125      10.7144      114.363 
-0.000158551      13.4195     -130.528 
-6.86485e-05      8.29457     -73.1831 
0.000123623      3.80254      62.0898 
-4.89357e-05      9.28126     -35.8850 
7.01718e-05      3.99856      40.9442 
-0.000113786      11.5405     -127.465 
-0.000311210      9.03582     -86.5721 
2.46222e-05      13.1134     -47.9665 
0.000139096      8.09728     -29.6059 
-0.000131730      6.38477     -137.667 
2.45161e-05      10.8888      64.8937 
2.44825e-05      3.33924      55.7421 
4.75181e-05      6.86332      42.9930 
9.31301e-05      8.84379     -65.6945 
4.70919e-05      7.36337     -104.151 
2.44339e-05      7.82120     -141.017 
0.000243023      11.6566     -133.607 
-6.98260e-05      10.3013     -145.599 
6.97619e-05      7.74813     -143.395 
-6.91265e-05      12.9283     -51.6580 
6.77418e-05      6.06066      90.7591 
0.000205296      9.65917     -106.106 
-4.69056e-05      5.54673     -18.4962 
-4.58348e-05      10.1484      28.4847 
2.39351e-05      11.0752     -147.689 
-5.20281e-05      11.6380     -30.5747 
2.39338e-05      4.01630      63.6935 
2.38709e-05      10.8025      69.5194 
4.63118e-05      13.1285     -48.0257 
-2.38155e-05      10.0144     -20.8224 
2.38135e-05      9.06114      130.792 
-0.000483104      11.2719     -56.8738 
4.56719e-05      10.0984      45.8008 
-0.000194689      5.06380      11.6180 
2.37107e-05      11.0117     -154.273 
-2.36550e-05      9.03463     -86.7003 
2.36538e-05      8.04295      33.3342 
4.60759e-05      9.32175      147.706 
-6.45285e-05      5.72422      152.985 
6.66146e-05      11.8926      36.1765 
-0.000441050      10.9581      50.7023 
-0.000284884      7.49311      65.8965 
-8.81959e-05      7.05420      8.31197 
0.000317554      10.6257      108.095 
-0.000215411      12.9246     -51.5345 
8.68909e-05      13.3032     -50.0616 
-0.000195808      6.96707     -23.6937 
-2.33830e-05      13.6480      134.345 
0.000191574      13.1917     -137.335 
-2.33299e-05      8.90941      134.819 
8.54170e-05      7.20545      162.722 
0.000109698      10.8722      37.3745 
0.000153416      8.20023     -90.0000 
-4.57625e-05      10.9732      50.7668 
-6.32789e-05      8.99317     -166.366 
-0.000104585      6.88789      168.952 
4.27156e-05      9.09746      67.0980 
-2.30118e-05      2.16267     -92.6450 
4.24947e-05      7.06385     -103.090 
-2.30292e-05      7.92138     -128.956 
8.78836e-05      4.60898      158.891 
-2.29513e-05      12.0520     -131.972 
0.000286074      12.6154     -132.237 
-0.000102679      9.03590     -110.200 
-0.000137931      7.89381      19.0757 
-8.30180e-05      9.34020      27.8250 
0.000174780      11.0292     -154.317 
0.000177929      7.96285     -135.710 
0.000469329      13.7763      44.0599 
0.000292297      8.15932      13.3193 
-6.62136e-05      8.17471     -171.278 
-4.40696e-05      9.48650     -141.852 
4.28694e-05      6.04455      174.872 
-0.000154052      8.30379     -33.8064 
-0.000103613      9.24842      41.9316 
0.000120524      10.1548     -44.3623 
-4.33975e-05      9.30090     -96.5459 
0.000177121      7.72907     -109.186 
-2.22845e-05      7.93045     -69.3272 
-0.000352165      9.82807      80.0414 
8.08206e-05      2.72755     -50.3579 
-4.27733e-05      12.1538      56.2050 
-0.000141704      10.3014     -99.4966 
-6.33071e-05      11.2225     -114.648 
-9.89382e-05      8.59339     -122.838 
-2.20388e-05      5.87517     -132.376 
-6.03065e-05      8.27631     -33.7650 
-0.000206602      9.05738     -103.145 
2.19703e-05      11.0917     -147.743 
2.19588e-05      10.3257     -40.5999 
-2.19024e-05      12.0505     -132.108 
-8.23033e-05      8.95090     -109.445 
2.18415e-05      12.3895     -48.9267 
-0.000115671      10.3929      160.554 
-4.23485e-05      9.26546     -35.9557 
-0.000175887      5.35877     -19.8508 
-7.99156e-05      7.84075     -114.409 
4.24429e-05      6.83469      42.9846 
6.12002e-05      10.6064      108.129 
-2.16099e-05      12.9372     -51.4642 
-9.71835e-05      10.7217      138.101 
-2.15566e-05      9.74591     -155.379 
4.23371e-05      7.06846     -103.250 
6.11869e-05      9.33867     -152.720 
2.15203e-05      11.2885      146.565 
6.10828e-05      4.50304     -15.4536 
-0.000255938      10.0166      38.6772 
8.29505e-05      9.55763      110.709 
6.11378e-05      10.4613      61.5709 
8.17004e-05      8.85184     -65.5794 
9.89629e-05      13.5392      49.0136 
6.01693e-05      9.30526      147.641 
6.02888e-05      7.54591      31.1181 
2.13059e-05      6.15407     -67.8509 
0.000169279      9.26627     -138.503 
3.92699e-05      7.63737     -105.495 
0.000148793      8.65437     -69.0114 
-5.67716e-05      9.11713      121.178 
-3.88595e-05      12.9509     -51.9608 
4.07874e-05      9.09438     -66.8175 
-0.000147892      10.2852     -145.538 
-5.69653e-05      4.89019     -70.1581 
-4.00800e-05      5.53402      47.1980 
0.000269775      11.4647      35.2691 
2.11107e-05      10.8096      69.4188 
2.10929e-05      10.0585     -46.5295 
-0.000318416      10.1312      28.5373 
7.82107e-05      3.98010      179.708 
6.07664e-05      11.2873      150.255 
-8.02734e-05      8.33796     -152.266 
-6.09310e-05      9.99546     -20.8636 
-0.000267017      5.33310     -19.7276 
-0.000120801      11.7595      133.001 
-5.75354e-05      12.2177     -131.150 
-0.000259926      9.72818     -155.331 
-0.000216856      10.4150     -104.572 
-0.000176770      8.31984     -73.0899 
-4.07107e-05      11.2955      31.6068 
0.000235013      9.11386      108.954 
-7.69300e-05      7.35157     -167.587 
0.000234971      9.33918      77.0033 
-5.82791e-05      2.16370     -93.1809 
3.97521e-05      10.6789      45.9879 
-5.77798e-05      5.87393     -132.655 
2.06951e-05      13.8045      44.0596 
5.40098e-05      9.04256     -50.9244 
-7.32403e-05      8.15468     -171.256 
2.06377e-05      7.91063     -158.492 
2.06404e-05      4.01332      40.7616 
-2.06158e-05      7.95192     -72.8885 
-2.06156e-05      5.32379      127.216 
2.04688e-05      5.30150     -82.8448 
0.000214334      3.93485      77.3764 
0.000126171      9.43820      3.52348 
0.000124646      7.80847     -141.132 
-0.000147214      13.5525     -41.0510 
0.000166849      9.79867      118.396 
-2.03829e-05      9.57250     -42.1214 
-7.62833e-05      10.9460      134.703 
-3.91949e-05      12.3763     -36.7226 
-0.000110069      10.0966     -169.270 
-7.51402e-05      2.22031      125.828 
5.13905e-05      11.2716      146.508 
-2.02089e-05      12.0369     -132.036 
3.95532e-05      11.1641     -147.732 
0.000124981      4.62789      158.982 
2.01601e-05      8.01593      33.2944 
-2.01685e-05      6.77408      169.456 
-5.80439e-05      12.1479      54.5820 
0.000175273      11.9955      31.5692 
-3.92909e-05      8.15174     -171.392 
-5.70098e-05      11.8099      141.325 
-2.00777e-05      8.89558      134.908 
0.000350437      10.4213     -16.7309 
3.67953e-05      12.4023     -48.8588 
-3.89736e-05      9.50185     -141.925 
-3.93853e-05      10.3225      27.2096 
3.82818e-05      7.35295      131.579 
-0.000114026      12.1850      40.5420 
7.42558e-05      8.57618     -10.2107 
-7.42335e-05      7.58555     -154.380 
1.98614e-05      9.41765     -164.604 
-7.57004e-05      11.2075      119.859 
0.000143315      10.8561      37.4394 
7.38386e-05      10.0872     -46.5252 
-0.000242251      13.2274      46.5309 
-9.47120e-05      10.5265      75.2525 
-5.50433e-05      5.28159     -88.4776 
0.000431250      9.55075      110.599 
-0.000300524      12.4811     -129.863 
-1.96870e-05      5.87638      37.5342 
0.000142576      13.4487     -45.1808 
0.000152767      11.2660      146.365 
-0.000120426      9.54388     -42.1128 
-0.000110294      7.67937      95.8270 
0.000131225      5.55399      66.6632 
1.94545e-05      7.71978     -143.426 
-1.94378e-05      3.51853     -159.710 
7.39366e-05      9.62403     -88.3334 
3.79488e-05      6.82043      43.0963 
7.33867e-05      8.55928     -17.1212 
-7.09339e-05      6.73917      33.5007 
3.68727e-05      7.82649     -157.300 
-3.69392e-05      7.74667     -27.3568 
5.61792e-05      11.3049      150.306 
0.000213204      13.1768     -137.275 
7.15143e-05      10.2869     -120.754 
-1.92628e-05      14.2421      135.741 
-0.000126317      8.58242     -122.724 
-5.47720e-05      7.93256     -72.8455 
-0.000127113      5.90630     -97.1963 
7.24733e-05      7.94836     -135.608 
1.91683e-05      4.13295     -170.806 
5.50551e-05      13.7899      44.1181 
-0.000138745      13.0332      49.2960 
0.000104808      8.09561      86.4608 
7.01755e-05      11.3709     -134.431 
-3.70173e-05      3.87347      170.488 
-1.90232e-05      12.5458      44.0331 
-9.54694e-05      9.10666      121.069 
0.000182968      11.1916     -147.703 
9.07453e-05      8.86023     -65.4601 
-1.88825e-05      12.8954     -137.450 
1.88230e-05      10.7914      69.3824 
0.000151064      8.44435     -88.2381 
5.85661e-05      10.4517      61.6686 
-1.87509e-05      9.25725      39.9162 
-0.000287765      8.92531     -109.370 
3.69166e-05      7.89967     -158.309 
9.74168e-05      6.02437      174.855 
-1.87105e-05      9.24906     -36.0294 
-0.000187103      14.2566      135.798 
-8.51029e-05      9.23799     -95.2151 
-1.86568e-05      6.56295      45.9867 
-1.86286e-05      12.2887     -129.519 
1.86061e-05      8.90474     -91.8012 
-3.63718e-05      10.3738      160.517 
-0.000244819      13.4244      46.2683 
8.87948e-05      7.73575     -109.328 
-1.85155e-05      9.19805      35.7985 
1.84658e-05      7.18611      162.674 
-1.84209e-05      5.80403     -47.5150 
0.000103768      11.9045      36.2552 
-3.56701e-05      5.86032      37.6549 
7.08688e-05      9.09574     -176.595 
-0.000146584      11.8169     -126.328 
-1.83246e-05      13.0480      49.3519 
-5.26828e-05      9.26294      41.8509 
-1.83060e-05      11.2880     -30.5627 
-0.000128094      8.35590     -152.330 
-5.23014e-05      13.4104      46.3308 
0.000184972      10.1829     -44.3611 
-6.59931e-05      9.53030     -141.904 
-3.52073e-05      9.01171      139.772 
3.52443e-05      10.6202     -59.8152 
1.81712e-05      9.29160      19.0964 
-0.000114085      7.07425      8.28825 
1.81222e-05      11.6162     -48.3492 
6.41531e-05      10.8720     -65.0834 
8.20068e-05      11.3181     -54.2044 
3.56126e-05      8.93167      122.658 
-1.80513e-05      10.4388     -131.815 
-3.47460e-05      11.2782      31.6607 
-3.43490e-05      12.3920     -36.6687 
1.80008e-05      8.50651      66.1484 
0.000112127      10.2592     -120.714 
0.000106622      2.74260     -50.6179 
3.41486e-05      9.61443      113.149 
0.000290606      13.7926      137.937 
9.65583e-05      2.67180      30.5912 
-5.06221e-05      10.3045      27.2611 
0.000153797      10.5118     -129.598 
1.78857e-05      9.86100      21.4144 
0.000132531      7.97176      55.6323 
-1.78501e-05      6.86801      168.920 
1.78594e-05      6.07993      90.5657 
-0.000100007      9.21388      35.7275 
5.12617e-05      10.5196     -140.012 
-3.37113e-05      4.04515     -46.2026 
-1.77467e-05      11.4911     -30.3125 
-0.000102634      8.07606      69.4097 
6.81043e-05      11.4009      149.071 
6.56646e-05      9.26383     -175.912 
8.20352e-05      7.70412     -143.340 
-0.000194460      10.5317      75.1459 
5.10621e-05      4.15295     -170.851 
6.75206e-05      8.15358     -95.2064 
0.000167811      11.2948      150.395 
-0.000225205      12.7095     -131.491 
6.20836e-05      3.48195      81.0736 
6.66271e-05      9.62714     -80.6742 
0.000201529      9.13783     -170.041 
-0.000123117      12.1702      40.6017 
-0.000125898      9.70077      90.5895 
-0.000158635      11.9476      51.7280 
5.14648e-05      7.23346     -83.0106 
-0.000152566      12.5594      44.0971 
-8.09325e-05      8.37451     -168.290 
-0.000115923      11.2781     -30.4773 
-0.000161841      10.2212     -84.8360 
-1.74033e-05      7.21685      80.5866 
-0.000173233      12.9468     -51.2728 
-3.36730e-05      6.36981     -137.545 
5.06887e-05      9.84214      21.4575 
9.66499e-05      9.80689      118.236 
5.02659e-05      11.2479      38.3577 
-6.34747e-05      4.11928     -77.3840 
0.000165364      10.4695      61.7212 
-0.000131129      11.4611      27.9979 
-1.72760e-05      6.84425      169.053 
-0.000289718      10.4539     -131.741 
-3.32705e-05      10.9602      134.778 
0.000112049      12.7140      50.4265 
-5.01132e-05      7.22007      80.4339 
-1.71601e-05      9.97653     -20.9051 
-1.71799e-05      7.27195     -111.622 
1.71493e-05      6.54289     -11.9942 
1.71234e-05      2.75502     -50.3043 
-0.000308186      13.3507      135.606 
0.000212288      11.8097     -146.607 
5.00887e-05      11.3445      30.0434 
-1.70689e-05      3.54361     -159.523 
6.59497e-05      10.3225     -18.9974 
1.70272e-05      10.1290     -110.939 
-0.000234815      11.4639     -37.1309 
0.000111326      8.88708     -65.3955 
-0.000140602      7.66205      95.9926 
-0.000109162      12.7676      132.587 
0.000122729      9.78547      153.802 
-7.92361e-05      7.87467      19.1239 
-0.000120111      8.29333      23.5961 
-6.09371e-05      2.26581      175.955 
3.33793e-05      10.9754     -22.4990 
-0.000295633      9.81627     -107.920 
-0.000441854      12.8695     -44.6220 
-1.68440e-05      12.0829      40.7036 
-4.83474e-05      10.3743     -168.886 
0.000132005      9.18675      7.88257 
0.000107601      9.11714     -176.480 
-7.94972e-05      10.1245      73.3540 
-3.31158e-05      5.90887     -97.3913 
4.87951e-05      10.0453      168.980 
9.81439e-05      9.64489     -88.2166 
6.46290e-05      3.57089     -9.67808 
-9.57440e-05      10.1951      68.7194 
-0.000137123      12.3082      52.9268 
3.24801e-05      11.6027     -48.4240 
-0.000136758      13.7124     -48.3097 
-0.000184035      11.2034     -136.300 
-3.25760e-05      11.7941      141.263 
0.000234509      10.2710      71.1428 
0.000243458      10.1363     -111.046 
1.66452e-05      9.02742     -50.8463 
-3.08951e-05      7.84484      126.082 
-0.000130721      10.8885     -58.0624 
0.000266603      7.23586     -82.8573 
1.65520e-05      10.6183     -15.7374 
-3.17193e-05      3.89272      170.536 
-4.71577e-05      11.3946      31.0666 
1.65203e-05      10.5135     -32.5728 
1.64342e-05      8.17457      13.1535 
-5.85950e-05      8.99625      139.689 
1.64319e-05      7.80780     -157.242 
3.21609e-05      8.01676      86.2808 
-1.64066e-05      4.88360     -70.3734 
-0.000162135      12.0317      48.7068 
-4.63794e-05      8.78196      95.6195 
-0.000287565      10.9780      62.0809 
-0.000102576      12.9669     -52.0160 
-0.000213334      9.49155      15.6492 
9.26202e-05      10.9489     -22.4416 
-0.000189604      9.03701     -86.4486 
-9.13748e-05      8.99370     -75.3168 
1.61313e-05      13.3157     -49.9972 
4.73292e-05      9.62961     -35.7027 
-7.02899e-05      11.7082      130.219 
0.000137280      13.1619     -137.216 
4.64909e-05      9.27970     -138.409 
0.000152268      11.3909      149.155 
-0.000225129      13.3551     -131.905 
-0.000162926      8.06895      69.5444 
-0.000119311      13.5392     -40.9864 
1.60491e-05      10.5988     -15.7671 
-0.000119383      5.93150     -97.5530 
-0.000177575      12.0676      40.7663 
6.19450e-05      11.2764      38.3746 
-0.000156363      6.80151      169.151 
1.59746e-05      9.59038      165.384 
1.59319e-05      3.35069      55.4558 
8.70087e-05      9.14808      57.3176 
-7.17936e-05      13.6756      135.416 
0.000106137      10.8406      37.5021 
1.58718e-05      10.3536     -18.8197 
0.000138503      9.65377     -105.995 
-3.11194e-05      8.13466     -171.235 
0.000133507      10.7076     -22.3972 
6.04886e-05      9.09692     -176.472 
-1.57566e-05      8.88243      27.2015 
1.57624e-05      9.55075     -87.2394 
4.54753e-05      11.2330      60.3301 
1.57689e-05      3.59086     -9.62373 
0.000130015      10.9391      38.1694 
-0.000575922      14.2847      135.794 
7.47484e-05      8.15183     -95.0698 
1.56702e-05      4.00036      179.710 
0.000184492      7.41134      138.612 
4.56204e-05      13.4631     -45.2416 
0.000179789      9.60999      165.415 
4.45208e-05      7.98209      33.4540 
0.000128659      9.48370      126.943 
1.56084e-05      13.3002     -49.9411 
1.55949e-05      8.15485      13.1859 
-1.55374e-05      9.30314     -96.6653 
-0.000245251      13.6423      47.1376 
-4.58534e-05      8.32570      177.934 
0.000132301      9.64388     -80.8125 
-1.55738e-05      7.95790     -72.7491 
0.000184599      10.8127      37.4854 
4.53987e-05      12.4157     -48.7883 
1.55013e-05      10.2175      168.713 
-8.44667e-05      7.33251     -167.554 
1.54356e-05      9.02107     -1.01520 
-4.36165e-05      6.73414      33.7361 
8.44806e-05      10.3344     -18.8559 
-2.95631e-05      9.16015      117.571 
-0.000189612      11.4790      27.9504 
3.04143e-05      3.99632     -84.8289 
0.000390207      10.6503      108.162 
-1.53585e-05      12.1361      54.6600 
-0.000101407      11.2955     -30.4252 
5.69874e-05      8.07539      86.4519 
0.000321211      12.6304     -132.175 
4.35756e-05      10.3916     -139.997 
4.42156e-05      9.86589      59.9540 
-4.42241e-05      10.5480      117.925 
0.000131531      9.79768      118.135 
4.50387e-05      3.56754     -9.35732 
8.80893e-05      12.6012     -45.4487 
0.000126487      8.04062     -63.2436 
2.87626e-05      8.20415     -149.372 
1.52081e-05      10.2777     -18.2577 
5.92738e-05      11.1476     -32.3218 
-1.51831e-05      13.0205      49.3611 
0.000101001      10.1977      168.691 
0.000113343      8.79833     -84.6512 
-1.51402e-05      2.26555     -98.6293 
-0.000357624      13.3713     -139.185 
-4.46277e-05      13.1993      46.5365 
2.94845e-05      11.3347      29.9580 
2.94640e-05      10.1120     -44.2784 
-0.000100932      11.7122      29.2354 
2.90294e-05      10.5322     -139.930 
-1.50944e-05      7.96393     -72.6099 
5.71818e-05      9.61378     -35.7706 
-5.57387e-05      12.0401     -122.449 
-8.44686e-05      11.0968     -61.5893 
-0.000248104      7.98450     -140.487 
-1.50570e-05      7.08512      85.1396 
1.50375e-05      7.99729      86.2718 
1.50343e-05      7.82426     -141.225 
2.96073e-05      11.5483     -48.5826 
0.000285198      12.1491     -124.606 
-2.91235e-05      9.27804      41.7675 
1.49955e-05      8.05620     -137.718 
-4.42004e-05      10.1518      63.6869 
-0.000165862      10.2018     -84.8262 
-1.49312e-05      7.68382     -53.0383 
1.49341e-05      12.9100     -49.5237 
-4.41786e-05      12.7375     -131.501 
-2.94525e-05      11.5182     -30.3505 
0.000111503      9.53127     -87.2338 
5.78067e-05      13.4774     -45.1805 
8.50333e-05      7.80367      8.39891 
-0.000256760      7.08343      85.3029 
-1.48800e-05      13.0353      49.4170 
-2.89437e-05      8.86442      27.2613 
0.000149805      10.4346      14.5439 
0.000302397      11.3118      150.444 
-1.48535e-05      9.07270     -102.996 
1.48745e-05      11.9209      36.1976 
8.57374e-05      7.90577      85.3560 
0.000122745      10.5793     -15.7969 
2.92248e-05      7.94360      55.6704 
0.000123681      11.8211      59.8347 
-0.000177880      7.22046      42.3085 
4.33994e-05      10.3034     -19.0340 
7.01992e-05      7.68788     -143.250 
-4.32104e-05      10.1762      68.6780 
5.64972e-05      11.0475     -154.363 
2.90446e-05      7.02270      146.855 
-4.24402e-05      7.56796     -154.317 
2.91312e-05      10.1971     -44.4425 
1.46932e-05      9.45767      3.51622 
0.000162077      7.75575     -81.9969 
1.46625e-05      4.17295     -170.895 
0.000149178      10.8635     -65.1804 
-2.89948e-05      10.5368      27.1016 
-4.17746e-05      10.9698      121.430 
-2.88073e-05      10.3552     -168.865 
1.46494e-05      9.65933     -148.546 
-0.000294123      10.5181      75.0120 
-8.15779e-05      7.13206      93.3778 
-4.15099e-05      11.1683     -145.285 
5.63353e-05      10.4406      40.4937 
4.18617e-05      9.71235      127.554 
1.46026e-05      9.15903      57.2109 
-5.41704e-05      10.2000     -84.9395 
-0.000243297      13.1859      46.5980 
-4.11558e-05      11.9540      136.424 
8.38892e-05      3.54755     -9.41052 
0.000111289      13.1476     -137.158 
0.000216122      11.4083      149.208 
2.80167e-05      11.2917      38.3131 
-0.000189031      11.5082     -140.501 
4.23881e-05      3.99812     -84.5505 
-9.55038e-05      8.34520      177.939 
0.000152730      14.0473      133.673 
6.86635e-05      8.87867     -65.5144 
-9.66191e-05      9.70977     -155.281 
-0.000161892      8.48448     -139.588 
0.000135564      12.4705     -48.6422 
0.000122127      10.9183     -134.404 
-0.000201864      11.2169     -136.228 
-8.30843e-05      9.80936      95.7337 
-0.000321817      12.7241     -131.433 
0.000134131      10.9309     -22.4807 
4.09067e-05      9.62241      113.260 
1.43833e-05      11.9105     -141.955 
-0.000109696      11.9323      51.6699 
5.64257e-05      11.5354     -48.6552 
-5.44998e-05      7.66419      96.1432 
-4.20854e-05      8.94443     -109.327 
4.05725e-05      10.6504      33.5109 
5.42736e-05      8.15006     -94.9279 
-5.59053e-05      12.9346     -51.3402 
-0.000135001      10.1337      63.6361 
1.42915e-05      11.2768      146.282 
-1.43104e-05      7.93461     -44.0804 
0.000214149      9.60378      88.3299 
-2.80526e-05      7.67166     -53.1592 
1.42552e-05      9.64904     -168.644 
2.78265e-05      9.10730      108.834 
-2.79224e-05      14.2570     -45.9084 
8.28622e-05      7.97737     -135.812 
0.000108086      9.80603      117.975 
0.000134018      11.1641     -32.2683 
-9.58958e-05      8.99886     -75.1920 
2.73852e-05      6.89567     -84.1728 
9.48992e-05      10.2110     -44.3658 
9.40641e-05      11.3728      38.5010 
-1.41863e-05      13.4144      133.066 
0.000106121      4.00757     -158.942 
-1.41018e-05      10.9745      134.853 
-6.90318e-05      10.5548      27.0514 
0.000172255      12.3273      138.554 
0.000210603      11.0943     -27.9517 
4.13976e-05      9.42285     -164.490 
0.000331033      12.6149     -45.3856 
5.34085e-05      11.9849      31.4867 
-1.40562e-05      8.32803     -7.31456 
4.04612e-05      11.2497      146.310 
6.54808e-05      10.5661     -15.9314 
-2.75432e-05      10.6446      157.577 
4.13809e-05      11.9676     -58.4626 
-0.000304374      13.3366      135.668 
1.40050e-05      11.0856     -28.0898 
-2.75379e-05      10.5946      159.446 
-5.45259e-05      7.90648     -44.0810 
1.39923e-05      9.32066     -152.663 
-4.06168e-05      7.11259      93.3870 
0.000119956      7.35054     -107.251 
-0.000108076      11.2556     -56.8195 
-1.39786e-05      8.14030     -179.720 
0.000132119      10.3549      171.448 
2.77603e-05      11.0764     -28.0008 
-2.74795e-05      9.55815     -141.880 
-6.73322e-05      7.01231     -23.7122 
2.74106e-05      11.2605      146.227 
-2.73453e-05      10.1877      68.8255 
1.38511e-05      10.0980     -44.3557 
-1.38295e-05      10.2054     -172.569 
-9.53285e-05      11.4969      27.9031 
1.38320e-05      11.3246      29.8692 
0.000132292      13.4918     -45.2411 
-0.000145886      12.0528      40.8269 
-0.000118117      13.6990     -48.3730 
0.000185184      10.1785      168.669 
1.37819e-05      9.26011     -152.050 
-0.000198239      7.81780     -10.7653 
0.000118689      12.8539      131.279 
0.000157383      10.7340     -22.4560 
4.01994e-05      9.87605      59.8523 
4.03377e-05      8.14033      13.3509 
4.00429e-05      9.64078     -80.9270 
-0.000118552      10.1134      28.5921 
-1.37399e-05      5.22584     -164.689 
-0.000107365      10.6400      31.0005 
2.73200e-05      8.55130     -63.9139 
-0.000131446      8.91861     -109.248 
-6.55483e-05      8.37318     -152.392 
0.000130788      9.11788     -170.019 
1.36749e-05      11.5069     -48.6643 
9.26730e-05      9.43692      82.6953 
-1.36760e-05      9.81165      79.9044 
2.69400e-05      10.6200      150.682 
0.000105382      9.66268      150.622 
2.68920e-05      10.2697     -40.5759 
-1.36543e-05      11.3229     -30.4584 
-2.68533e-05      5.91141     -97.5788 
-3.99423e-05      9.18621      35.6960 
-2.65706e-05      13.4006      133.003 
1.36129e-05      9.98137     -57.5202 
-1.36002e-05      10.7321      114.320 
1.35691e-05      3.54429     -9.08740 
7.86934e-05      7.23840     -82.6982 
2.67516e-05      9.24220     -176.029 
-0.000143525      12.2921      52.8699 
-3.98680e-05      12.8024     -138.041 
0.000157474      11.4935     -48.7402 
-3.98152e-05      7.65998     -53.2760 
-3.97474e-05      2.20749     -94.6795 
3.95921e-05      9.27725     -135.347 
2.67230e-05      3.45957      81.3549 
-3.97476e-05      9.70132     -155.390 
-0.000169578      12.9219     -51.4103 
-0.000117717      9.70367      102.864 
0.000156398      13.8057      137.877 
0.000143946      9.66005     -80.9452 
-4.00120e-05      9.68013     -49.8612 
-7.82985e-05      11.7738      132.936 
2.68053e-05      11.1169     -126.292 
-3.94086e-05      12.7813      132.654 
2.68135e-05      11.7824     -46.0322 
0.000104217      7.90415      85.5024 
-5.30171e-05      11.3130     -30.3732 
2.65739e-05      5.56175      66.4786 
3.91280e-05      7.15681     -124.755 
7.83153e-05      11.9849     -58.5133 
-2.66982e-05      11.7669     -122.719 
5.27756e-05      8.54241     -64.0359 
7.83023e-05      9.24221     -151.991 
-7.80831e-05      8.08724      69.5927 
-1.33944e-05      5.67147      152.713 
-3.99013e-05      11.5141      27.8577 
-1.33554e-05      11.5459     -30.3864 
-6.54395e-05      10.1688      68.7843 
1.33418e-05      9.76370      118.507 
2.64290e-05      7.43470     -173.049 
-1.33309e-05      7.15457     -23.9143 
0.000117997      14.0326      133.730 
5.19414e-05      13.1482     -137.280 
-1.33112e-05      11.0026      134.851 
-2.65042e-05      10.5637      27.1457 
2.61541e-05      9.81193      153.747 
2.62284e-05      8.06984     -137.612 
-0.000103890      10.0398     -107.028 
-0.000116789      13.6561      47.0753 
9.09068e-05      9.40405     -164.458 
-2.62695e-05      6.82509      169.022 
6.46636e-05      11.2814      143.943 
1.32939e-05      11.0658     -154.408 
-0.000129347      13.0500     -128.592 
-6.48481e-05      10.6128      159.483 
-2.59559e-05      8.84708      27.3192 
-3.89708e-05      2.24560      175.918 
6.49553e-05      3.52503     -9.13749 
-2.61855e-05      12.2131      40.5497 
3.93255e-05      7.99137     -135.909 
-1.32347e-05      8.32575     -72.9565 
-5.19925e-05      9.20811     -28.4029 
-1.32222e-05      9.07177     -122.395 
2.60775e-05      13.1482     -47.2804 
1.32084e-05      11.3218      29.6455 
-0.000117395      11.5411      27.8963 
-0.000115981      12.0247      40.8196 
0.000103088      12.0883      42.5849 
3.92123e-05      11.7678     -45.9637 
1.32163e-05      10.2902      71.1792 
6.44211e-05      13.1338     -137.223 
-1.31791e-05      7.68359      96.1276 
1.31758e-05      10.4172      16.2770 
2.61030e-05      10.5452     -139.846 
5.16211e-05      11.9246     -46.1550 
-6.44807e-05      9.80736      95.6159 
-1.31148e-05      10.5513     -104.826 
-3.88264e-05      9.00406     -75.0674 
-3.86699e-05      11.5902     -122.456 
-0.000102993      10.6122      30.9631 
-2.58704e-05      12.9093     -51.4806 
1.31330e-05      7.78663      8.56817 
-5.17252e-05      11.7945     -122.746 
2.58792e-05      10.4560      40.4216 
1.30582e-05      11.1647     -156.007 
-1.30629e-05      11.0112      49.7155 
3.85463e-05      9.94334      149.411 
-2.58627e-05      11.8049     -126.249 
-2.57376e-05      7.92105     -43.9790 
6.41852e-05      7.16765      99.9593 
-7.70140e-05      10.1712     -6.77478 
3.86604e-05      13.9466      136.046 
-5.14356e-05      10.5817      27.0956 
-3.86232e-05      11.1047     -61.7257 
-3.85077e-05      8.00015     -140.580 
-8.97537e-05      10.5021     -70.1862 
-3.85858e-05      8.83722     -39.4873 
-7.68579e-05      11.3397     -30.4085 
3.84917e-05      10.3882      79.6844 
2.57532e-05      8.57313     -93.2113 
1.29952e-05      9.74590      118.564 
6.40744e-05      11.1832     -156.049 
1.29803e-05      11.3022      150.530 
-5.12771e-05      11.0267      49.7836 
-2.57149e-05      8.32643      177.800 
2.56287e-05      11.1050     -126.208 
2.57790e-05      9.51207      126.968 
7.68349e-05      14.1989     -134.544 
-2.56531e-05      5.37712     -19.7802 
0.000127666      14.0040      133.728 
-2.57339e-05      9.65159     -49.8756 
-5.11372e-05      11.2028     -136.159 
-2.55825e-05      12.9789     -51.9481 
3.83571e-05      7.42599      138.712 
3.83847e-05      9.20682      7.86528 
-1.28975e-05      9.01753     -86.4409 
-1.28944e-05      9.72269      102.838 
-3.83266e-05      10.1804      68.9319 
3.83158e-05      10.4372      41.9722 
2.55971e-05      7.28057     -75.8492 
1.28695e-05      10.7634     -57.5187 
6.38444e-05      10.6442      108.062 
-1.29063e-05      13.1362     -131.357 
2.55804e-05      4.00034     -159.212 
-2.56108e-05      7.64788     -53.3977 
-2.55341e-05      11.5733     -30.4190 
1.28993e-05      9.13863     -176.361 
6.37333e-05      12.6169     -132.107 
-0.000102010      11.5590      27.8493 
-3.82684e-05      10.8715      54.5832 
2.56221e-05      10.6030      150.630 
3.82372e-05      3.21723     -66.9453 
-1.28351e-05      7.03833     -23.7994 
1.28104e-05      2.71467     -50.6872 
-1.28287e-05      2.24552     -98.7069 
1.27868e-05      8.00593     -136.010 
-1.28116e-05      9.76917     -29.2940 
2.55113e-05      7.34383     -107.593 
2.54469e-05      6.57615     -134.385 
-2.55365e-05      13.1496     -131.423 
2.55275e-05      8.55995     -64.0931 
-2.54683e-05      2.20924     -95.2032 
3.81819e-05      10.2017      168.579 
-2.55135e-05      3.75678     -154.111 
1.28085e-05      10.8317     -116.421 
-3.82065e-05      13.1719      46.6620 
1.27623e-05      9.88624      59.7508 
2.54524e-05      11.2728      150.795 
3.81323e-05      9.63430     -106.028 
-1.27924e-05      8.75767     -3.66484 
3.81854e-05      12.3621      54.9459 
2.54471e-05      12.4571     -48.7121 
-2.54059e-05      12.8169     -138.099 
-2.60121e-05      6.66212      128.419 
1.27599e-05      12.9970      134.565 
2.54307e-05      8.33177     -109.783 
1.27663e-05      7.75306     -82.1397 
1.27779e-05      8.16706     -57.3992 
2.53994e-05      9.49589      127.041 
-1.27417e-05      11.4953     -140.578 
-1.27456e-05      10.5657     -104.692 
1.27278e-05      8.02052     -136.111 
-1.27250e-05      5.60884      152.616 
-1.27371e-05      5.91412     -97.7734 
1.27051e-05      5.67406      136.854 
1.27043e-05      9.46425     -133.545 
2.53597e-05      9.65688     -81.0639 
1.26773e-05      13.5199     -45.2384 
-1.26788e-05      8.78000      95.4879 
1.26749e-05      9.51718     -117.264 
-1.26840e-05      8.63138     -122.990 
1.27090e-05      11.0568      57.2601 
1.26937e-05      9.22060     -176.146 
1.26803e-05      11.7397     -45.9686 
-1.26834e-05      6.38351     -137.411 
1.26717e-05      10.3471     -18.7135 
-1.26646e-05      9.05686      84.8043 
1.26705e-05      12.2701     -47.1809 
1.26638e-05      11.4806      35.2129 
-1.26441e-05      10.5575      118.022 
1.26408e-05      10.2905      6.69592 
-1.26450e-05      13.3566     -139.130 
1.26566e-05      11.4654     -48.7467 
-1.26657e-05      11.7647      48.8584 
1.26523e-05      9.02525     -148.317 
0.000112773      11.3300     -54.1213 
7.03267e-05      10.7575     -57.3752 
9.67151e-05      7.54471     -126.050 
-9.64698e-05      10.2012      61.6761 
-5.63434e-05      8.39114     -152.456 
8.29235e-05      12.8969     -49.5922 
8.30301e-05      10.1069      153.180 
5.60235e-05      12.0478      47.6252 
-5.52389e-05      12.9274     -132.177 
-1.45759e-05      7.80157     -10.9338 
-5.52683e-05      10.3521     -25.0307 
-9.54472e-05      12.1585     -140.341 
-6.85520e-05      13.9442      44.5356 
-5.50149e-05      7.83292      125.962 
-8.11797e-05      11.9106     -43.6394 
-4.09892e-05      10.1652      61.8213 
5.42725e-05      13.8995     -42.6678 
1.41650e-05      7.53281     -125.926 
-4.08480e-05      9.06817     -102.871 
5.41006e-05      8.90561      52.0225 
-6.76952e-05      12.7042     -143.708 
4.06153e-05      12.5956      137.190 
-4.12899e-05      8.86599     -23.6730 
6.68630e-05      11.8543     -141.990 
-4.03587e-05      8.95934     -166.180 
4.01797e-05      8.01547      86.4253 
-5.35828e-05      10.1338      58.0670 
5.34305e-05      11.6156      123.555 
-1.36481e-05      12.9410     -132.243 
4.04145e-05      5.68886      136.994 
-2.66536e-05      10.0082     -118.921 
-5.34315e-05      12.0292     -122.368 
-2.68424e-05      10.4314      15.3419 
2.66464e-05      13.6580     -41.5567 
1.35661e-05      8.06272     -136.207 
2.64561e-05      12.6963     -53.4545 
-2.69787e-05      9.14602      164.657 
-2.64584e-05      8.89269     -23.7401 
-2.63455e-05      11.1912      25.5101 
2.63959e-05      11.4132      26.4303 
1.33972e-05      12.6800     -53.4000 
-2.64323e-05      8.83992     -39.3093 
2.62005e-05      12.4595      132.269 
1.31926e-05      11.3094      30.1462 
1.31834e-05      8.04811     -136.107 
1.31396e-05      8.03569      86.4343 
-1.30930e-05      10.2692      27.3627 
1.30441e-05      13.5131      49.1409 
-1.30263e-05      11.0581      32.3668 
-1.29827e-05      11.5771     -127.701 
1.29849e-05      12.3978     -130.550 
1.28827e-05      11.9019      54.0932 
1.28675e-05      10.8760     -134.329 
1.28318e-05      7.80666      8.54602 
! Tentative model.
! Flux (Jy) Radius (mas)  Theta (deg)  Major FWHM (mas)  Axial ratio   Phi (deg) T \
! Freq (Hz)     SpecIndex
-1.34441e-05      9.14597      164.657 
