! Center RA: 12 21 31.69053,  Dec: +28 13 58.50012 (2000.0)
! Established model.
! Flux (Jy) Radius (mas)  Theta (deg)  Major FWHM (mas)  Axial ratio   Phi (deg) T \
! Freq (Hz)     SpecIndex
  0.154776    0.0200000      180.000 
 0.0330305      0.00000      0.00000 
 0.0127808    0.0282843      135.000 
0.00318495     0.101980      101.310 
0.00131822    0.0447214      116.565 
0.00260765     0.121655      99.4623 
0.00307500     0.141421      98.1301 
0.00736565     0.164924      104.036 
0.00639536     0.184391      102.529 
0.00656807     0.470744      102.265 
0.00773980    0.0200000     -90.0000 
0.00487986     0.203961      101.310 
0.00697000     0.494773      104.036 
0.000452637     0.228035      105.255 
0.000425164     0.247386      104.036 
0.000138864    0.0824621      75.9638 
0.000273611     0.266833      102.995 
0.000386403     0.120000      90.0000 
0.00195817    0.0447214     -116.565 
0.00135988     0.286356      102.095 
0.000256814    0.0721110      56.3099 
0.000851147     0.101980      78.6901 
0.00258503     0.519230      105.642 
0.00144107     0.305941      101.310 
0.000634686    0.0721110      33.6901 
0.00102413    0.0565685     -135.000 
0.000106149    0.0894427      63.4349 
0.000288200    0.0848528      45.0000 
0.000634675    0.0721110     -146.310 
0.000719255     0.538516      105.068 
0.000449190    0.0824621      14.0362 
0.000265697     0.325576      100.620 
8.58692e-05     0.329848      104.036 
8.55370e-05    0.0894427      26.5651 
! Tentative model.
! Flux (Jy) Radius (mas)  Theta (deg)  Major FWHM (mas)  Axial ratio   Phi (deg) T \
! Freq (Hz)     SpecIndex
0.00372980    0.0282843     -45.0000 
0.000494831     0.544059      107.103 
0.000703667     0.286356      114.775 
0.00375892     0.569210      108.435 
0.000336861     0.313050      116.565 
0.000107384     0.304631      113.199 
0.000105955     0.268328      116.565 
0.000104654     0.323110      111.801 
0.000346496     0.250599      118.610 
0.000836278     0.550273      109.093 
0.000482167     0.341760      110.556 
0.000584996     0.223607      116.565 
0.00158189     0.360555      109.440 
0.000445993     0.178885      116.565 
0.00148843    0.0400000     -90.0000 
8.44616e-05     0.152315      113.199 
0.000162160     0.594643      109.654 
8.13888e-05    0.0632456      71.5651 
8.09770e-05     0.740000      108.925 
0.000749737     0.765506      109.855 
0.00145324     0.575847      110.323 
7.90321e-05     0.100000      90.0000 
0.000223609    0.0824621      75.9638 
0.000139109     0.205913      119.055 
0.000138210    0.0447214     -63.4349 
0.000885135     0.784347      109.359 
0.000200643    0.0721110      56.3099 
0.000594400     0.233238      120.964 
0.000190366      1.03247      98.9149 
0.000303914    0.0600000     -90.0000 
0.000238721    0.0721110      33.6901 
0.000640713      1.05224      98.7462 
0.00104216     0.379473      108.435 
0.000593283    0.0632456     -108.435 
0.000365438    0.0824621      14.0362 
0.000783502     0.809938      110.225 
0.000211695      1.07201      98.5836 
0.000304041      1.00578      107.354 
0.000824322     0.260768      122.471 
0.000340539      1.09179      98.4270 
0.000368211    0.0721110     -123.690 
4.85145e-05     0.986712      107.700 
0.000321426     0.101980      11.3099 
0.000411818     0.386264      111.251 
0.000517272      1.01193      108.435 
0.000345780      1.08904      97.3860 
0.000579090     0.120000      0.00000 
0.000321360    0.0848528     -135.000 
0.000237823      1.11158      98.2759 
0.000608558      1.01843      109.502 
0.000590642      1.10887      97.2532 
0.000213117     0.100000     -143.130 
0.00107476     0.817068      111.541 
0.000301015     0.404969      110.225 
0.000276159     0.272029      126.027 
0.000155893      1.00975      97.9696 
0.00138477      5.24786      120.964 
0.000667264     0.141421     -8.13010 
0.000331008     0.145602     -164.055 
0.000895414      8.82145      119.471 
0.000412373      3.65015      115.301 
0.000518578      3.61508      114.864 
0.000404761      4.09941      104.985 
0.00140819      1.95233      119.454 
0.000727310      3.71042      111.171 
0.000265634     0.563205      106.504 
0.000108487     0.300000      126.870 
0.000348107      1.05109      111.194 
0.000753457      1.12872      97.1250 
0.000403428     0.987320      96.9811 
0.000131100      4.01756      102.653 
0.000855659     0.161245     -7.12502 
0.000363372     0.164924     -165.964 
0.000208437      4.10463      105.255 
0.00116946      5.88122      91.1691 
0.000313440      4.23495      103.380 
0.000332454      6.65733      110.395 
7.60895e-05      6.78316      114.752 
0.000405227      4.98839      110.906 
2.47705e-05     0.113137     -45.0000 
0.000741904      6.79155      114.905 
0.000510680      4.25906      103.579 
0.000691348      3.28420      110.311 
0.000137051      3.98944      102.155 
0.000988529      7.36158      115.939 
0.000200448      3.51295      97.8533 
0.000113626     0.312410      129.806 
0.000131325     0.557853      104.534 
0.000132459      7.52191      105.736 
0.000200911      8.81163      119.358 
0.000675188      6.62471      110.131 
0.000176611      3.98527      101.874 
6.32849e-05     0.284253      129.289 
0.000443020      7.54117      105.695 
0.000172085     0.325576      132.510 
0.000408325      3.08318      87.3974 
0.000199729      1.08462      112.782 
0.000491027     0.985089      95.8263 
0.000184937     0.553173      102.529 
0.000209722      3.51027      97.5299 
3.28623e-05      4.10994      105.524 
1.95619e-05     0.164924     -14.0362 
0.000147977     0.184391     -167.471 
0.000347411      4.99556      111.120 
7.43417e-05      3.97899      107.251 
0.000502960      1.92354      81.0274 
0.000116431      5.47533      117.876 
0.000277971      7.24610      117.626 
0.000103998      8.78440      119.308 
0.000291252      3.96162      101.650 
0.000101089     0.339411      135.000 
0.000201609      7.53578      105.549 
9.95393e-05     0.220907     -174.806 
0.000150003      3.97311      106.975 
0.000442793      5.88167      91.3639 
0.000220577      8.63539      118.346 
3.33484e-05      6.81131      111.895 
0.000209384      3.10232      87.7832 
6.49956e-05      3.27732      109.983 
0.000216664     0.549181      100.491 
0.000268499      7.56042      105.654 
0.000327297      7.25540      117.766 
8.75902e-05      6.81880      112.051 
0.000129698     0.373631      105.524 
0.000285076      3.30992      110.516 
6.15240e-05     0.353836      137.291 
0.000127932      1.11893      114.274 
0.000211971     0.240832     -175.236 
3.08009e-05     0.824621      112.834 
0.000154922      7.03548      112.921 
0.000101174     0.184391     -12.5288 
0.000293931      1.98957      120.174 
0.000349248      3.10161      88.1524 
9.93302e-05      3.64165      115.017 
0.000166528     0.850882      113.552 
0.000110248      3.47805      103.637 
0.000109896      3.48786      97.2473 
5.71230e-05     0.368782      139.399 
0.000163288      7.56227      103.926 
5.44731e-05      5.39529      118.085 
0.000149410      8.61780      118.409 
1.43861e-05      1.89061      83.9275 
0.000108216     0.181108     -6.34019 
0.000107726      3.95763      101.367 
0.000107281      6.73552      115.880 
0.000133837     0.983260      94.6669 
9.31050e-05      5.22042      120.888 
9.30726e-05      5.02143      111.251 
2.64503e-05      3.81093      115.489 
4.00732e-05     0.384187      141.340 
1.34083e-05      6.61785      109.968 
2.63015e-05      1.10653      96.2258 
-9.09442e-05      5.10000      118.072 
2.61596e-05      4.08534      111.541 
3.90327e-05      1.92676      80.4399 
2.58300e-05      6.59224      109.864 
2.56390e-05      7.49725      105.630 
1.28308e-05      5.90217      91.5534 
1.28024e-05     0.460435      145.620 
