! Center RA: 12 21 31.69052,  Dec: +28 13 58.50011 (2000.0)
! Established model.
! Flux (Jy) Radius (mas)  Theta (deg)  Major FWHM (mas)  Axial ratio   Phi (deg) T \
! Freq (Hz)     SpecIndex
  0.137687      1.52028      90.0000 
 0.0342173      1.50002      90.0000 
 0.0147631      1.50016      90.7738 
0.000990263      1.56005      90.0000 
0.00476697      1.53979      90.0000 
 0.0265209      1.78003      89.3478 
0.00112417      1.58044      89.2655 
0.00646016      1.59995      89.2744 
 0.0190394      1.62057      88.5938 
 0.0124770      1.62021      89.2835 
0.00226534      1.75977      89.3403 
 0.0109594      1.47990      90.7844 
0.00576520      1.77992      90.0000 
0.00324042      1.75966      90.0000 
0.00326785      1.64047      89.2924 
0.00254399      1.65998      89.3007 
0.00257411      1.52042      89.2365 
0.00140287      1.80018      90.0000 
0.000221822      1.80029      89.3552 
0.000437344      1.64083      88.6111 
0.000644880      1.81980      89.3621 
0.00156842      1.84038      88.7617 
0.00244710      1.75977      90.6597 
0.00145211      1.74015      90.0000 
0.00217424      1.86118      88.1516 
0.000757680      1.71989      90.0000 
0.00412059      1.47976      90.0000 
0.000165457      1.68024      89.3091 
0.000766518      1.74027      90.6671 
0.00194010      1.60032      88.5760 
0.00323924      1.88068      88.1708 
0.000650687      1.88014      88.7879 
0.000463944      1.76011      91.2947 
0.00124543      1.90040      88.8009 
0.000589745      1.69975      89.3170 
0.00264372      1.46039      90.7949 
0.000567613      1.96012      90.5922 
0.000687859      1.78093      91.9317 
0.000698958      1.98037      90.5862 
0.00162233      1.72001      89.3251 
0.000595283      1.99988      90.5805 
0.00198761      1.58082      88.5584 
0.000702115      2.04030      90.0000 
0.00177926      2.05991      89.4365 
0.00153391      1.96041      91.1624 
0.00264427      1.46025      90.0000 
0.000565224      1.80197      92.5538 
0.00104030      2.08017      89.4419 
0.000600665      1.58145      87.8246 
0.000513886      2.16120      91.5917 
0.000982069      1.98067      91.1505 
7.09444e-05      1.88143      87.5541 
0.000107597      1.96093      91.7543 
0.000139853      1.72035      88.6753 
0.00272988      2.18135      92.1094 
0.000309535      1.78036      88.7200 
0.000299917      1.92035      90.6045 
0.000583634      1.76011      88.7053 
0.000287945      1.94016      91.1746 
0.000886242      1.93986      90.5984 
0.000535089      1.74060      88.6908 
8.83589e-05      1.74027      89.3329 
8.21535e-05      1.82146      87.4735 
0.000841172      1.69963      90.0000 
0.000154905      1.84170      87.5013 
0.00326262      2.20240      92.5972 
0.000432140      1.68012      90.0000 
7.38424e-05      1.80197      87.4462 
7.13741e-05      1.65986      90.0000 
7.12237e-05      1.82242      86.8607 
0.000327353      1.78173      87.4172 
6.90685e-05      1.64035      90.0000 
0.000185320      1.84265      86.8952 
0.000664655      1.43999      90.0000 
0.000306148      1.78271      86.7907 
0.000215831      1.86288      86.9290 
5.36894e-05      1.76149      87.3875 
0.00176544      1.44014      90.8061 
0.000291328      2.05981      90.0000 
0.000357486      1.86408      86.3071 
0.000299258      1.76249      86.7539 
0.000153622      1.69975      90.6830 
0.000185618      1.86549      85.6861 
0.000139815      1.98118      91.7364 
0.000100456      1.88495      85.7307 
0.00205768      5.09429      85.7256 
0.000185753      1.78544      94.5077 
9.48729e-05      1.62009      90.0000 
0.000126263      1.96165      92.3458 
0.000342606      1.88650      85.1398 
0.000195851      1.76375      86.0967 
0.00109556      1.56121      87.7963 
2.96768e-05      1.98190      92.3218 
0.000164525      1.96255      92.9149 
0.000589053      1.44054      91.5820 
2.84799e-05      1.65998      90.6993 
9.79463e-05      1.64047      90.7076 
0.000127134      1.78708      95.1313 
0.00175760      2.56848      151.638 
9.74521e-05      1.96368      93.5053 
9.37252e-05      1.88833      84.5273 
0.000206635      3.48743      104.275 
0.000217245      1.76524      85.4406 
0.000112772      2.08447      98.8214 
0.000144823      1.80916      95.7130 
0.000420440      3.34049      106.697 
0.000544695      2.20160      92.0900 
0.000187237      1.91051      83.9804 
0.000512761      2.08767      99.3709 
8.20388e-05      3.31622      106.471 
0.000196289      3.49248      104.598 
0.000211951      1.44124      92.3872 
0.000410078      2.66020      89.5636 
0.000431763      1.54189      87.0151 
0.000130225      2.08045      88.9047 
3.81666e-05      3.22778      106.185 
3.72121e-05      5.06318      84.5573 
0.000265702      1.83817      67.6122 
8.25096e-05      1.76690      84.8100 
0.000420327      3.27347      84.7390 
0.000149469      3.23348      106.530 
0.000102884      5.04490      84.3148 
0.000136914      1.44223      93.1914 
0.000150067      3.49745      104.907 
0.000195506      1.73737      78.0349 
3.42740e-05      1.82858      95.6521 
0.000502351      3.25404      84.7075 
0.000434739      1.91266      83.3992 
6.81206e-05      1.62021      90.7165 
0.000269136      2.64016      89.1369 
5.77664e-05      1.83068      96.2831 
0.000136241      1.50237      99.9516 
6.18401e-05      5.04695      84.0860 
0.000130230      2.11444      100.345 
0.000234630      1.63451      68.4526 
0.000255183      3.50272      105.227 
2.93843e-05      1.74747      84.7521 
0.000332223      4.96926      83.7582 
0.000262882      4.17242      97.1595 
0.000138737      3.13915      77.1132 
0.000118983      5.00883      93.4355 
0.000756954      1.74152      77.4069 
8.21396e-05      1.82804      66.7921 
0.000243155      1.52976      101.315 
0.000131316      4.96709      83.9905 
0.00132661      5.00766      93.2041 
0.000183335      1.93014      145.982 
4.91599e-05      1.42029      91.6046 
0.000129408      4.20068      88.9048 
2.64286e-05      1.98524      94.0532 
0.000214219      4.04606      83.4721 
0.000193793      5.11233      85.9599 
0.000344490      2.26550      103.797 
0.000484295      5.26010      84.9832 
9.92615e-05      1.44014      89.1939 
9.41672e-05      1.83055      68.1986 
0.000151626      1.82015      67.3783 
0.000192265      3.12856      76.3204 
0.000714585      3.27168      85.0923 
0.000143291      1.74944      84.0913 
1.26072e-05      2.00227      92.8570 
0.000597012      1.91400      145.656 
0.000210562      4.20110      88.6388 
2.34051e-05      2.00338      93.4358 
7.76050e-05      1.50600      100.711 
0.000254366      3.52227      105.141 
0.000172256      2.20095      91.5629 
0.000160108      4.17499      97.4354 
0.000138304      1.44054      88.4180 
0.00120052      5.11095      86.1865 
6.31280e-05      2.11818      100.884 
0.000426118      4.04841      83.1872 
9.85155e-05      1.59983      90.0000 
5.33192e-05      2.02164      92.2762 
6.36111e-05      1.55782      102.604 
0.000177920      2.66042      89.1435 
0.000776487      2.55066      151.422 
0.000139950      2.39754      109.490 
5.82992e-05      5.04908      83.8573 
0.000328792      4.09236      94.4801 
7.75766e-05      3.38371      107.901 
3.06747e-05      1.82340      68.7678 
0.000297296      2.47937      107.854 
1.02165e-05      1.42100      92.4212 
0.000150537      1.82817      70.1817 
8.62833e-05      1.58592      103.852 
1.98449e-05      1.44884      96.3336 
0.000121534      4.20163      88.3625 
4.60985e-05      3.25224      85.0629 
4.64006e-05      2.02251      92.8284 
0.000497744      2.32568      152.335 
0.000369350      3.13342      75.9604 
0.000134470      4.15823      97.7368 
9.63792e-06      2.04069      91.1167 
5.33895e-05      1.47986      99.3381 
-0.000761270      1.55700      110.304 
7.33081e-05      1.44124      87.6128 
0.000361804      1.78955      64.8641 
0.000116097      1.90306      146.141 
3.49698e-05      2.06226      98.3689 
-0.000405038      1.53801      110.566 
9.30434e-05      2.15011      102.353 
0.000203776      2.26075      103.298 
0.000254220      1.59089      104.561 
0.000155896      2.40438      109.945 
0.000670094      5.25837      85.2031 
1.77501e-05      1.42029      88.3954 
2.56441e-05      2.04119      91.6853 
7.34742e-05      1.45121      97.1287 
0.000381154      3.52761      105.458 
0.000194500      3.38999      108.226 
0.000137977      4.20226      88.0864 
0.000296967      1.79605      142.230 
7.39403e-05      1.42100      87.5788 
2.45739e-05      2.02361      93.4014 
0.000211819      1.91929      146.465 
0.000188011      4.16100      98.0132 
6.35371e-05      2.03666      97.3240 
4.69059e-05      5.05120      83.6372 
0.000150541      2.41110      110.381 
0.000153572      1.42200      86.7631 
2.98013e-05      2.04188      92.2536 
0.000225172      1.82164      70.7590 
0.000251668      4.20296      87.8206 
0.000105181      1.93520      82.8722 
7.99217e-05      4.17756      97.7007 
6.75758e-05      1.45386      97.9210 
8.66735e-05      2.04274      92.8004 
1.35063e-05      1.62084      105.741 
5.26852e-05      1.93621      146.796 
9.16746e-05      5.00657      92.9726 
8.08407e-05      2.41823      110.831 
0.000260689      1.59610      105.265 
0.000729583      1.80853      141.723 
-0.000277482      3.24571      75.3630 
0.000165161      2.47323      107.407 
0.000345156      2.05259      146.920 
6.69633e-05      2.35407      96.3321 
6.73169e-05      5.02680      92.9606 
6.49903e-05      1.92519      147.301 
0.000402612      1.42324      85.9790 
8.27140e-05      3.28408      103.020 
0.000136317      2.25618      102.798 
0.000166190      1.42665      95.6446 
0.000193789      2.42551      111.278 
-0.000894434      5.02094      95.2564 
0.000452327      3.13821      75.6149 
3.72966e-05      4.16388      98.2893 
0.000149879      2.04383      93.3677 
0.000235771      2.33468      96.3849 
5.84563e-05      1.82797      72.1675 
1.07050e-05      2.15454      102.879 
-0.000328596      5.04112      95.2354 
0.000325725      2.34365      152.565 
7.86427e-05      4.22402      87.5564 
7.01720e-05      3.40924      108.120 
0.000212983      1.93150      148.131 
-0.000643511      1.69186      61.0022 
-0.000462712      3.24065      75.7096 
0.000238097      4.89783      94.9218 
1.49902e-05      1.56698      104.023 
0.000261032      4.02904      83.1543 
0.000211155      4.22320      87.8311 
0.000259745      3.50809      105.546 
4.58756e-05      4.09399      94.7628 
8.70224e-05      1.81507      71.3628 
4.09570e-05      1.57201      104.739 
-0.000206053      4.29972      90.0000 
0.000253376      2.23643      102.912 
-0.000235340      4.29977      90.2700 
-0.000312771      5.41458      85.7639 
-0.000287049      1.94141      65.0099 
1.73765e-05      2.17997      90.5325 
0.000257450      1.56212      87.0538 
3.95658e-05      2.69211      153.049 
-0.000269522      3.04478      80.1663 
0.000188789      1.60135      105.938 
-0.000436184      3.10961      103.765 
1.26273e-05      2.44023      112.148 
0.000402144      3.14330      75.2571 
2.04826e-05      3.29198      81.9678 
0.000176496      4.22251      88.0956 
5.24320e-05      4.18032      97.9759 
0.000145753      1.78104      65.4542 
1.20784e-05      2.17987      90.0000 
1.20089e-05      2.44794      112.587 
3.47370e-05      2.42273      109.788 
2.57191e-05      3.26508      103.097 
4.63207e-05      3.29487      81.6189 
0.000185595      4.91632      94.6663 
8.16625e-05      1.74605      76.7581 
4.68719e-05      2.16046      89.4627 
1.12194e-05      5.07597      83.2080 
0.000216720      2.45550      113.008 
7.63165e-05      3.24189      105.754 
4.88623e-05      5.28029      85.0024 
3.73015e-06      2.36165      152.792 
5.34444e-05      3.29777      81.2836 
-0.000182894      2.34336      111.529 
2.06784e-05      2.41594      109.335 
4.87557e-05      5.07362      83.4352 
-0.000120359      1.96130      106.584 
0.000143661      4.22188      88.3704 
2.74454e-05      4.89954      95.1491 
5.52814e-05      1.64178      67.8193 
2.55995e-05      1.68203      92.7360 
-6.71658e-05      5.19676      83.1500 
4.93883e-05      3.23645      105.409 
7.02519e-05      3.30090      80.9360 
-0.000143663      3.23570      76.0572 
3.83663e-05      1.42480      85.1662 
2.88324e-05      1.90850      84.5853 
3.51476e-05      2.16073      88.9454 
-1.32038e-05      4.84595      92.8403 
4.70722e-05      2.67993      89.1497 
2.25084e-05      2.39086      109.032 
-9.69557e-05      4.84695      93.0706 
-5.97248e-05      2.35087      111.988 
-5.89156e-05      1.92375      64.7644 
3.41490e-05      2.03565      146.609 
2.16606e-05      3.24534      103.178 
1.54350e-05      1.42480      94.8338 
1.85507e-05      3.22239      105.852 
2.14075e-05      2.14909      104.560 
-2.44242e-05      3.18115      88.5537 
1.82647e-05      2.38457      108.589 
1.20905e-05      1.56324      86.3396 
1.20600e-05      3.19389      107.869 
3.04253e-06      2.12069      88.3779 
6.04074e-06      3.23112      105.063 
6.01101e-06      2.14095      88.3932 
2.99255e-06      1.70152      92.7047 
-0.00101887      4.56654      18.1134 
0.000642376      5.94314     -22.7673 
-0.000222462      4.47605     -79.4417 
-0.000937289      11.3741      28.4587 
0.000219361      9.70697      27.8844 
-0.000595283      4.49523     -79.4873 
-0.000480509      6.77250     -12.9723 
0.000561156      10.0463      164.055 
-0.000553997      8.37028     -100.883 
-0.000269198      7.24711      154.847 
0.000500735      10.2604      115.767 
-0.000561915      13.1354     -130.554 
-7.01906e-05      7.62184     -123.438 
0.000333937      9.69858      28.0461 
-6.89343e-05      7.25542      154.707 
0.000522712      5.96183     -22.6920 
-0.000200249      2.64998      65.9535 
-6.82081e-05      7.61070     -123.311 
-0.000488147      9.86611     -66.9685 
0.000195126      10.0407      164.166 
-0.000237620      7.26545      154.914 
-0.000440816      7.52498     -16.3621 
-0.000556524      7.58305     -123.272 
-0.000312283      3.93653      106.227 
-0.000418955      10.5236     -30.3682 
0.000131021      5.65785     -69.5124 
0.000191183      10.0637      27.5834 
-6.57212e-05      13.1222     -130.487 
-0.000243129      4.54729      18.1928 
-0.000478035      4.12375      10.0605 
0.000468908      11.5714     -54.4990 
0.000244665      8.67906      115.087 
0.000176279      9.31979      84.7058 
0.000639416      5.67684     -69.5840 
-0.000515265      2.65830      65.5547 
-0.000339086      11.7821      123.718 
0.000119113      13.0680     -44.6278 
0.000239283      7.09832      118.806 
-0.000235749      8.58740     -123.025 
-0.000572267      6.74895     -12.8418 
0.000121312      5.06644     -61.2067 
0.000288247      9.68907      27.9404 
0.000175198      6.57784      18.9868 
0.000121549      5.23719     -65.8808 
0.000502610      9.46191      173.447 
0.000172330      12.9778      38.6174 
-0.000451414      10.9485     -40.7031 
0.000281384      10.0544      27.4811 
-0.000278712      10.8147     -62.5797 
0.000225859      6.66349     -63.8187 
0.000275303      5.22894     -66.0834 
0.000274120      5.51972     -83.1291 
0.000111735      9.68402     -84.5487 
0.000220808      8.08359     -38.5743 
0.000169063      12.7600      126.778 
-0.000114388      10.5036     -69.8406 
-0.000168153      8.30475      91.9314 
-0.000275227      8.33484      101.766 
0.000167888      13.4089     -132.160 
-0.000326326      11.0508     -32.8851 
-0.000215818      3.94224      106.510 
-0.000218493      6.12932     -74.2878 
-0.000111550      13.6113     -46.7871 
0.000162710      8.91453     -123.188 
-0.000161775      11.0918     -115.872 
-0.000161892      3.72777      36.9322 
0.000108163      5.11679      71.7803 
-0.000268148      14.3403      135.339 
-0.000216483      11.3569      28.5056 
-5.57521e-05      9.57835      174.849 
0.000108729      5.49529     -148.394 
-5.51782e-05      9.17891     -134.384 
-0.000160857      10.4778     -69.9026 
0.000108452      11.4133      40.0260 
0.000192887      10.4946      134.073 
0.000107440      7.08858      118.662 
-0.000105639      9.55892      174.839 
-0.000158159      11.7965     -45.9613 
0.000158486      8.92054      150.444 
-0.000105620      7.33908      155.531 
5.32624e-05      4.77018     -12.3440 
-0.000104424      9.16475     -134.293 
-0.000104736      8.32500      91.9267 
5.29515e-05      12.7484      126.708 
-5.28049e-05      13.5979     -46.8470 
-5.26366e-05      10.3622     -70.3749 
5.25692e-05      10.3078      51.6183 
-5.25619e-05      5.18580      174.245 
5.23423e-05      8.67049      114.966 
-5.23089e-05      9.95636      44.3496 
8.19072e-05     0.808873     -171.464 
-0.000103400      10.2230     -105.313 
5.20723e-05      4.78998     -12.2922 
5.20214e-05      12.0854     -35.9798 
5.19676e-05      9.23935     -116.344 
-5.19103e-05      11.8719      43.0201 
-5.18318e-05      8.34848     -31.4813 
5.14291e-05      5.51192     -148.500 
-5.13969e-05      9.95654     -3.33984 
-0.000624786      8.20556     -145.224 
-0.000417395      12.1305      50.3510 
-0.000369361      11.4493      56.2537 
-0.000813155      9.75098     -4.58605 
-0.000301142      9.94101     -114.863 
0.000207465      12.9454     -138.132 
-0.000107638      13.1589      133.154 
0.000287444      9.80805      131.197 
0.000144451      9.30938      84.0826 
-5.36536e-05      10.0741     -46.7717 
5.32694e-05      9.90981      47.6177 
-0.000536207      8.22221     -145.305 
-0.000697891      9.77563     -74.9397 
-5.19415e-05      10.0880     -46.6879 
0.000272039      4.56411     -36.2670 
-0.000280424      7.19575      176.173 
0.000149098      9.31149      83.9586 
-0.000358943      10.2856     -70.5776 
-0.000311410      13.1723      133.216 
0.000231450      9.89617      47.7044 
-5.03892e-05      10.1867     -46.5909 
-0.000374949      10.0460     -46.7737 
-0.000866701      11.9793     -131.007 
-0.000247522      10.3918      126.627 
0.000416802      4.00818      164.371 
-0.000742549      12.2284      129.025 
-0.000341929      10.2002     -46.5113 
-9.16482e-05      11.2563     -145.349 
-0.000535703      12.2004      129.014 
9.14383e-05      10.2951      63.5825 
0.000272001      12.8539     -138.721 
0.000206888      9.92185     -156.223 
-8.98273e-05      8.25283      3.19515 
0.000291999      13.2876      137.012 
-0.000217426      5.79869     -102.549 
8.79054e-05      8.75972      131.113 
-0.000128582      10.4358      128.387 
0.000126773      9.09176     -11.1597 
-0.000165406      10.3801      126.540 
0.000197946      9.32953      84.0954 
8.20238e-05      10.3038      63.4853 
-8.14290e-05      5.80313     -102.744 
-4.33973e-05      12.1585      50.3411 
0.000192794      9.99336     -25.2316 
-0.000188757      5.16439      174.447 
0.000161520      4.45347     -74.9007 
-0.000120705      11.4876      56.1428 
-0.000155913      8.55316      8.47062 
-0.000155324      7.13719      175.985 
-0.000119718      9.95939     -114.814 
-7.30483e-05      8.54692      2.27935 
-8.10968e-05      11.2730     -145.408 
-0.000261389      10.8237     -152.488 
-0.000118451      2.96364     -58.2376 
0.000118331      10.3132      63.6326 
-0.000341214      8.25172      3.05469 
-0.000256775      12.1715      50.2677 
0.000199833      12.2572      138.639 
4.12250e-05      10.0278     -154.353 
-0.000381798      10.1113     -134.759 
0.000224781      9.83129     -99.3653 
-7.85951e-05      10.2283     -46.5042 
7.38365e-05      10.3572     -55.5443 
-4.03262e-05      9.78440      91.7579 
7.56650e-05      13.4519     -46.1459 
0.000616848      10.1668     -99.0535 
-0.000180905      10.4517      128.318 
-7.66051e-05      10.9577     -138.923 
3.95985e-05      4.54779     -36.4180 
3.94787e-05      8.77306      131.213 
0.000165561      12.1980     -46.9918 
-0.000120130      10.7242     -119.862 
-7.54682e-05      7.51955      175.880 
0.000184360      11.1578      37.9389 
-0.000395268      10.9617     -40.7834 
0.000365445      9.21446     -68.6128 
7.62403e-05      9.32755      84.2146 
0.000579486      9.72970     -87.4097 
0.000132997      9.83664      131.208 
-0.000215124      8.00018     -163.741 
0.000108854      10.0379      117.791 
7.46699e-05      9.86805      47.7090 
-3.81078e-05      6.40039     -148.544 
0.000137813      4.42938     -75.0880 
-0.000158505      6.47245      176.457 
-0.000142257      8.15331      65.5107 
0.000108499      11.9528      144.742 
-0.000176484      11.8055      120.996 
7.35631e-05      4.02770      164.449 
-0.000142891      13.0085      129.762 
0.000103552      9.28052     -11.9414 
9.90524e-05      9.73064     -87.2905 
0.000135410      7.93564      46.1226 
-7.31404e-05      11.3011     -145.381 
5.81944e-05      11.3511      32.6269 
0.000896239      13.2447      136.958 
-0.000370370      5.40554     -172.558 
3.66605e-05      5.91191      138.978 
-7.08011e-05      8.38834      10.0252 
-6.99268e-05      8.10739     -140.103 
-7.15983e-05      12.2779      125.786 
9.56564e-05      7.61767     -19.9576 
3.63445e-05      9.30338      84.4504 
0.000254436      6.44124      64.6291 
0.000135410      12.1842     -47.0614 
0.000505406      8.26118     -12.0162 
0.000105526      10.7109     -46.7402 
-0.000705366      11.9292      43.0296 
-0.000280728      11.0818     -116.242 
0.000578637      12.0458     -35.8783 
-6.82742e-05      7.78434      178.089 
-3.54411e-05      8.61502     -123.060 
3.54262e-05      9.30536      84.3262 
0.000213282      14.2570     -135.908 
-0.000117356      10.2665     -70.5400 
-0.000164163      13.7118      46.9493 
-0.000295863      10.0593     -46.6927 
-0.000708153      9.34426     -88.2835 
0.000217899      11.1445      146.939 
0.000200585      11.9360     -134.865 
-0.000187332      8.62609     -123.173 
0.000206005      10.2334      115.714 
0.000100699      8.92800     -152.515 
6.82026e-05      9.31621      84.9493 
-9.57669e-05      10.9424     -138.854 
-0.000153412      7.21596      176.184 
0.000288505      11.6038     -54.6131 
-6.35108e-05      11.3690     -154.247 
-0.000155464      11.8383      44.2475 
-0.000285149      10.8141      32.3105 
-3.38646e-05      8.91247     -81.7416 
-6.37229e-05      7.71592      3.71363 
-6.59211e-05      12.2501      125.768 
6.58108e-05      11.9503     -134.796 
0.000188449      10.2246      115.612 
9.73249e-05      8.58904     -109.024 
0.000158942      10.6823     -46.7448 
9.52429e-05      6.10863     -116.647 
9.38367e-05      6.41426      64.7150 
0.000183017      11.1424      38.0005 
0.000627332      14.1013     -45.8602 
-3.33030e-05      11.8567      133.223 
-0.000123064      9.15770      42.6091 
0.000203735      12.4350     -128.143 
-0.000121383      8.57320      8.45067 
0.000212655      14.0226      136.906 
-6.41050e-05      7.54044      175.743 
-0.000126531      12.9935      129.817 
-9.36473e-05      11.0617      40.7472 
-0.000149631      7.89928     -113.580 
-0.000442954      12.2615      125.842 
0.000153154      9.83461     -99.4817 
-0.000198836      8.40755      10.0021 
-0.000236801      8.01891     -163.780 
0.000589162      6.01923      149.003 
0.000286241      9.31445      85.0734 
3.25853e-05      3.90229      18.5221 
-0.000201866      10.7341     -34.3722 
-0.000144711      3.83508     -149.953 
8.87202e-05      14.1294     -45.8607 
-9.17823e-05      4.68397     -69.2452 
-0.000136460      6.49267      176.468 
-0.000899292      11.8160      121.080 
-0.000274473      11.2007      44.7096 
-0.000527190      13.2687     -43.6572 
-0.000584950      10.8510     -152.443 
-0.000207007      12.1876      128.940 
6.07830e-05      6.52084      18.6017 
-3.16297e-05      10.7976      32.3658 
-3.15642e-05      11.3283     -145.356 
-6.19012e-05      8.16173      65.3812 
0.000336303      11.4314      39.8176 
-6.04368e-05      7.79467     -66.7225 
9.03127e-05      8.24137     -12.0456 
3.09643e-05      7.35850      130.919 
-0.000239831      10.4652      168.087 
3.08161e-05      9.97560     -164.655 
3.08693e-05      8.85479     -55.3039 
0.000213676      10.6477     -111.602 
3.06866e-05      13.3303     -131.655 
-8.81673e-05      12.1844      50.1944 
0.000174030      10.3354     -163.703 
-0.000249365      6.38929      138.428 
3.05961e-05      13.8045     -45.9404 
0.000192425      8.91003     -152.455 
3.05917e-05      10.0470      117.889 
8.76633e-05      8.66897     -111.239 
-5.93858e-05      7.09050      159.008 
8.19498e-05      9.97503     -25.2812 
0.000404350      14.1159     -45.9175 
3.02840e-05      5.42941      153.531 
3.00201e-05      8.59567     -109.151 
-0.000341169      12.6800     -53.4000 
0.000152136      9.95606     -164.624 
-0.000134724      7.10220      159.219 
-5.39401e-05      8.97352      173.730 
8.21757e-05      9.33164      83.9717 
2.95926e-05      7.28741      21.0739 
-5.82139e-05      6.71734     -70.7048 
-5.73834e-05      13.1861      133.280 
0.000108719      10.6962     -46.6658 
-0.000289961      9.68956      107.910 
0.000164958      8.25398      34.0382 
-2.93667e-05      10.2143     -46.5866 
-0.000575163      13.0060      129.883 
-0.000177460      7.76409      178.084 
0.000107904      6.13583     -116.731 
-0.000192381      11.5017      138.242 
0.000108069      11.2025     -34.9675 
-0.000239715      13.0703     -140.463 
-0.000349195      11.1832      23.9508 
0.000128357      5.23961     -66.3683 
0.000132595      12.8691     -138.780 
0.000130914      10.1178     -140.613 
-0.000159807      9.59058      133.818 
0.000136570      9.31273      85.1976 
-0.000251710      11.3731     -145.388 
0.000277836      13.5879     -48.5194 
2.83848e-05      11.1409      121.493 
-2.82891e-05      7.52098      175.732 
0.000128616      12.4072     -128.125 
-2.81601e-05      5.27351      23.9426 
-0.000324180      11.3606     -154.335 
-2.80496e-05      8.38110      154.109 
-0.000156265      11.8522      44.1817 
2.78555e-05      5.43847      153.339 
2.77282e-05      10.2704      64.6313 
2.77525e-05      1.90159     -14.6285 
-0.000103462      6.71092     -70.8620 
0.000255502      9.85721     -99.5792 
0.000150565      12.2113     -46.9248 
0.000197143      9.97079     -16.9103 
-2.76397e-05      11.5169      138.309 
0.000105335      9.30152      84.5700 
-0.000332884      11.0857     -115.084 
0.000198669      9.78110     -90.9363 
-5.37290e-05      4.66443      95.9096 
0.000249839      4.07307      54.5912 
5.25780e-05      7.31334      21.1595 
5.37442e-05      12.8435     -128.869 
2.73426e-05      6.07851     -162.581 
5.29077e-05     0.824094     -174.409 
-2.72124e-05      8.99366      173.744 
0.000384537      10.3541     -163.733 
0.000118563      10.2788      64.5331 
0.000143811      10.3356      51.5975 
2.69613e-05      7.05141      81.8449 
-2.69626e-05      8.39933      154.170 
0.000253475      9.97045     -164.763 
-9.92285e-05      12.2119      50.1827 
-0.000932973      13.4739     -40.6660 
-0.000233597      5.31111     -11.7306 
-0.000124999      5.41375     -76.3220 
-2.68027e-05      11.2167      118.895 
-5.28934e-05      11.0331      40.7361 
-7.80875e-05      13.2000      133.344 
0.000147229      1.92120     -14.4759 
-2.66559e-05      10.4160      126.806 
0.000279830      12.2763     -39.4491 
-2.66722e-05      5.10781      149.917 
0.000413203      14.0359      136.848 
-9.63506e-05      8.27196      3.04721 
-5.21526e-05      8.39085      154.290 
-7.64985e-05      7.16486      8.83193 
-2.64918e-05      9.03298      57.7529 
0.000123648      7.05420      81.6880 
-0.000189167      13.0248      51.5474 
0.000102576      10.4524      133.994 
0.000444225      11.1168      146.966 
2.63049e-05      11.7072      31.5180 
-9.87865e-05      4.94179     -1.62714 
-2.62470e-05      7.06475     -156.122 
-0.000338277      5.42563     -172.586 
-7.55540e-05      11.2070      118.805 
2.61795e-05      7.87744      159.956 
-2.60976e-05      8.47872     -129.736 
0.000605995      12.2858      138.630 
-7.56102e-05      7.54197      175.589 
2.59399e-05      4.08485      54.3595 
5.12710e-05      6.00252      148.907 
-7.53104e-05      3.91494      97.6331 
-0.000122655      10.2131      102.785 
-2.57796e-05      5.12535      150.030 
-0.000196936      11.5449      138.299 
0.000700003      12.5871     -144.440 
-0.000141253      9.05964      70.1227 
2.56397e-05      7.47264     -79.2001 
7.42576e-05      10.5401      16.9927 
-7.37844e-05      11.4458      28.4905 
0.000119841      10.1027     -140.543 
-9.77704e-05     0.659734      165.980 
5.03498e-05      12.9595      38.7971 
-2.54058e-05      9.68786      45.2510 
-0.000298386      10.4810      127.635 
-2.54078e-05      8.41690      154.228 
-2.53069e-05      10.0732     -46.6088 
-7.30553e-05      12.4686      54.7289 
0.000208322      10.4383      133.914 
9.50552e-05      11.9605      122.918 
-4.87145e-05      10.7404     -147.317 
-7.31179e-05      11.8658      44.2493 
2.48890e-05      11.1265      38.0648 
0.000184860     0.845593     -173.222 
2.49414e-05      11.0665      150.795 
-0.000159488      13.1859      133.402 
0.000492137      9.29962      84.6942 
-4.78497e-05      10.2406     -70.6091 
0.000212071      11.1515      121.582 
4.81106e-05      11.2731     -136.079 
-2.47683e-05      8.40843      154.347 
0.000305770      10.9697     -67.0340 
0.000139605      11.8616      149.499 
-0.000170937      4.96204     -1.62049 
7.10436e-05      5.70344     -5.23128 
0.000204772      11.7122      119.235 
-4.74497e-05      11.0178      40.8049 
-0.000176604      10.0408      44.6760 
0.000116314      9.63616     -167.292 
2.44772e-05      7.30632      21.0168 
-7.19792e-05      8.34320      102.039 
-0.000134993      4.69633     -25.4759 
0.000265463      11.9879      122.949 
0.000205428      11.4184      39.7395 
-2.43310e-05      1.14142      93.0148 
-0.000409032      13.0859     -140.519 
9.11812e-05      12.9747      38.7431 
-4.74892e-05      9.83596     -4.89723 
4.66517e-05      8.98608     -130.034 
7.01151e-05      11.0594      150.654 
0.000134713      12.2252     -46.8555 
-6.19713e-05      7.14484      8.85688 
-4.73108e-05      6.71983     -89.6609 
-9.23204e-05      8.43515      154.287 
-6.63347e-05      9.72999     -4.48072 
-2.38773e-05      4.71463     -25.3700 
2.38251e-05      9.18821     -68.6843 
-4.58521e-05      6.37636      138.559 
0.000176581      7.33154      21.1045 
2.37538e-05      5.44725      153.156 
-6.84424e-05      8.36062     -95.6297 
-0.000110557      10.7626     -21.7035 
-4.58847e-05      4.77792     -163.466 
-4.67962e-05      10.1019     -46.6043 
-2.35525e-05      10.2474     -70.5022 
0.000218999      14.2421      45.7407 
6.92265e-05      7.24634     -51.6098 
-0.000173308      3.93428      97.5954 
-8.96418e-05      11.0356      114.523 
2.33057e-05      8.26492      34.1503 
-8.86275e-05      8.58703      154.031 
-0.000190313      11.5303      138.234 
0.000261855      9.86047     -99.6910 
-4.56675e-05      12.4803      54.6529 
-0.000152334      9.77791      108.363 
-4.47445e-05      11.1013     -32.7168 
2.31535e-05      8.83881     -73.1619 
-0.000358869      8.32412      102.067 
0.000129681      11.0418      150.602 
0.000373231      11.0301     -60.9257 
-2.30857e-05      11.1635      154.306 
4.35653e-05      10.1861     -99.0363 
-4.58669e-05      11.4287      28.5372 
-0.000326395      11.5730      138.293 
-3.92362e-05      10.0552      44.5949 
8.79575e-05      9.13775     -16.5316 
0.000390347      9.92488     -103.756 
6.77209e-05      10.1675     -165.415 
2.28629e-05      10.5265      17.1265 
-4.50352e-05      12.6680     -53.4736 
-2.28002e-05      8.31269      81.4237 
-2.27646e-05      5.30718     -11.5244 
-4.46953e-05      9.87733     -4.99463 
-0.000208610      8.98970      66.1137 
0.000109380      9.00668     -8.81330 
-2.26239e-05      11.6050     -48.5624 
-6.69810e-05      12.2734      125.918 
-0.000104834      10.9111      54.4747 
2.25898e-05      11.2871     -136.005 
6.60001e-05      10.3600      161.425 
-0.000192816      12.4455     -37.7550 
0.000262548      11.2185     -34.9104 
0.000151894      13.6008     -48.4578 
4.43162e-05      7.80666     -8.54602 
-0.000349224      7.02119      120.657 
0.000225931      8.83296     -73.2877 
4.40608e-05      11.7239      31.4682 
4.35325e-05      6.24556      130.063 
-4.35894e-05      5.39406     -76.2711 
-8.77593e-05      11.4194      28.4512 
-2.24238e-05      7.18531     -85.2075 
2.24238e-05      10.1831     -98.9278 
6.32032e-05      9.34395      21.7339 
-0.000343962      9.66429      107.837 
-0.000345929      9.86930     -67.2270 
-0.000105343     0.640096      165.540 
2.23418e-05      10.1599      109.789 
2.23187e-05      11.9217     -134.796 
0.000184079      8.95750     -107.140 
-2.22732e-05      6.20770     -27.2279 
0.000340599      10.5078      17.1578 
-8.58075e-05      11.2707     -25.8844 
-0.000284324      13.2548     -43.5939 
-2.20739e-05      4.31274     -103.134 
-2.20989e-05      10.1153     -46.5240 
2.20993e-05      9.01045     -118.215 
4.28862e-05      7.21972      117.913 
0.000282522      9.42184     -101.881 
-4.37215e-05      10.8690     -152.492 
0.000166178      7.23105     -51.5138 
9.43736e-05      5.45256      65.9783 
0.000125154      10.5923      137.909 
2.19052e-05      10.0754     -104.368 
-0.000123599      13.1010      39.4266 
0.000185926      10.2161     -97.8778 
-2.18774e-05      9.72225      88.7042 
2.18076e-05      10.1042     -86.0269 
0.000106407      10.1486     -165.387 
-2.18109e-05      12.4916      54.5800 
-2.17641e-05      7.90667     -107.520 
-4.26309e-05      8.31574      81.2857 
-4.29596e-05      13.1684     -128.959 
-8.25101e-05      6.73006     -70.9186 
0.000485467      10.1794      8.01721 
-0.000262207      12.9987     -130.256 
4.25766e-05      9.36470     -136.383 
-2.16472e-05      12.2457      125.895 
0.000315282      11.4663      153.257 
-0.000536561      14.1596     -43.7976 
-0.000184116      11.6016      138.285 
2.15167e-05      7.82972     -8.67060 
-6.04087e-05      10.7684     -147.284 
0.000121341      9.65592     -167.318 
-8.33649e-05      9.05277      70.2433 
-2.14767e-05      7.50554     -16.4057 
-0.000166127      8.26222     -178.751 
8.36078e-05      11.1357      150.165 
-0.000223398      13.1562     -128.893 
4.17488e-05      8.49053      87.1631 
-4.19311e-05      6.22572     -27.1426 
-8.36549e-05      11.3919      28.4102 
0.000165303      10.4075     -20.0015 
-2.13489e-05      9.92759     -69.8474 
-0.000165451      12.6842     -53.5280 
-2.13598e-05      11.6179     -48.4903 
6.20703e-05      6.04404      149.360 
-0.000205140      11.8696     -140.811 
-0.000220804      11.1647      23.9930 
-0.000124235      12.2576      125.972 
-2.12531e-05      9.74298      88.5878 
-0.000240773      6.40253     -66.2380 
-0.000122496      11.3645      28.3689 
-0.000141264      10.8429      140.614 
-6.24722e-05      13.0532      51.5331 
-4.19585e-05      9.93433     -69.7418 
0.000140885      11.7412      31.4165 
-0.000177687      9.75800      114.202 
-0.000101658      4.48351     -78.9421 
0.000118848      11.8785      149.547 
0.000142711      8.28026     -11.9881 
0.000158631      10.8548      51.8839 
-0.000686480      11.0673     -115.128 
0.000101455      9.99165      164.323 
0.000239551      12.4894     -142.288 
2.09607e-05      5.56524     -108.433 
-0.000570525      11.3518     -154.428 
-0.000100582      11.3892     -145.444 
8.21457e-05      9.02596     -8.79433 
-2.08671e-05      12.1350      38.1745 
4.13410e-05      9.88387     -99.7870 
-0.000176116      10.2329      102.760 
6.13153e-05      10.2692      64.3824 
0.000101763      13.6142     -48.3940 
-4.14615e-05      4.67872     -25.5787 
-8.09001e-05      8.92049     -21.8479 
0.000159695      11.7217      119.319 
0.000198346      10.3785      161.459 
-0.000293091      9.90927     -69.8086 
0.000802768      13.2595      137.018 
8.13674e-05      11.2497      33.6901 
-0.000329485      8.31991      101.930 
-0.000258137      13.2834     -43.5969 
-0.000198835      10.9194     -68.5093 
-0.000179453      11.5579      138.227 
0.000295770      13.0392     -44.7529 
-0.000100382      9.76374      88.4762 
-5.92220e-05      10.0264      44.7574 
4.02116e-05      9.93725     -164.594 
3.99647e-05      6.62029      113.316 
0.000450196      11.9989      123.030 
0.000450558      14.0498      136.788 
-0.000178400      11.6609      34.5900 
2.05247e-05      6.06083      149.454 
-2.04570e-05      8.44396      154.164 
6.03314e-05      7.82139      7.19797 
0.000140571      14.2562      45.6824 
-2.05179e-05      9.74755      114.355 
4.06587e-05      10.1290     -165.358 
-9.84456e-05      12.1509      38.1155 
-0.000235515      8.15154     -118.264 
-0.000120502      11.7990     -123.314 
-8.03146e-05      4.68751     -25.8021 
-4.05152e-05      11.3011      128.533 
-4.04213e-05      4.73075      18.7453 
-8.01407e-05      13.2671     -134.145 
-6.00096e-05      12.3686     -37.4421 
0.000311521      11.1087      150.205 
-6.06476e-05      6.71837      13.9540 
-5.95440e-05      12.4593      125.526 
-0.000137773      11.2889     -25.8395 
-2.03483e-05      12.4331     -37.6812 
-0.000234986      11.3684      117.106 
0.000197972      9.86390     -99.8070 
0.000412012      12.3144      138.622 
-2.03364e-05      10.4431      12.3855 
4.03492e-05      9.77693      27.4048 
0.000136919      11.7442      142.683 
0.000117771      11.0341      150.459 
-0.000123419      9.99879      44.7568 
-2.01969e-05      11.5240      132.327 
-0.000176990      12.4615     -37.6980 
-4.01698e-05      10.4276      12.5181 
-0.000157261      13.0659      51.4635 
-0.000156823      11.9859      37.8822 
-2.01645e-05      8.31883      81.1477 
-2.01444e-05      11.3891      59.9686 
3.98475e-05      10.6371      30.1319 
-4.01301e-05      8.24936     -145.271 
-0.000581726      13.4867     -40.7289 
2.01101e-05      11.3188      151.852 
-0.000233059      10.4424     -161.116 
7.91532e-05      13.5997     -48.3394 
-0.000156932      12.6722     -53.6017 
-0.000136732      2.78274      71.5602 
-0.000123467      11.4016      28.4997 
-7.86331e-05      10.8046     -151.112 
-0.000290438      12.0435      125.539 
3.93245e-05      11.2918      151.890 
-0.000224357      8.26181     -178.891 
-6.82154e-05      2.04404      73.5143 
-7.81202e-05      13.1993      133.464 
-9.74007e-05      12.2695      126.048 
-0.000194541      10.4474      12.4940 
-3.95304e-05      10.4692      167.982 
3.94767e-05      10.1094     -165.329 
-9.74748e-05      11.8879     -53.2089 
0.000155295      9.75961      27.4575 
1.98744e-05      9.72121     -14.2915 
1.98753e-05      5.58446     -108.367 
1.97929e-05      9.95090     -164.732 
1.98039e-05      8.47029      87.1564 
-0.000298683      6.71352      13.7862 
1.97392e-05      10.6072      107.786 
0.000135878      9.04599     -8.77471 
0.000116247      11.2329      33.7474 
-7.77461e-05      13.1134      39.4924 
0.000156288      13.6277     -48.3303 
3.94306e-05      10.4335     -20.0680 
3.92111e-05      6.54898     -138.963 
-0.000135301      11.4530     -53.9500 
3.92858e-05      11.8265     -121.165 
-1.96892e-05      13.2830     -137.929 
-1.96549e-05      9.70823     -4.37085 
0.000135105      11.1618      121.667 
-3.92272e-05      6.72347     -71.0818 
-0.000212342      11.3503     -153.072 
7.73347e-05      9.70158     -14.3211 
0.000173899      10.6380      107.958 
-1.96496e-05      11.3331      28.9172 
5.79061e-05      10.1893     -99.1488 
3.88449e-05      8.18095     -80.9973 
-7.74953e-05      6.21650     -26.9764 
-0.000116087      11.8159     -123.260 
-0.000115762      12.3841     -37.3872 
-0.000192777      12.9779      129.875 
0.000250401      9.88720     -99.8984 
-0.000135196      13.1435     -128.824 
-3.87727e-05      11.5109      132.255 
1.95167e-05      8.48955      87.2997 
-9.65936e-05      8.94684     -21.9201 
-5.82180e-05      9.90598      67.3160 
-7.72891e-05      12.5548     -54.3349 
-0.000115500      11.3473      28.4157 
0.000230903      10.1767      7.90844 
0.000154294      10.4525     -20.0298 
9.66351e-05      14.2707      45.7392 
7.76904e-05      11.8438     -121.114 
-0.000219024      8.99761      66.0002 
0.000119260      6.43259      64.7921 
-0.000153783      10.9375     -68.5468 
-1.94745e-05      4.71228      18.8216 
-7.94430e-05      8.73456      176.720 
-9.63136e-05      4.66927     -25.9103 
-1.94528e-05      4.02162     -88.2892 
0.000150055      7.49556     -152.683 
-1.94493e-05      10.3608      118.098 
0.000153834      10.3170      172.986 
3.85224e-05      11.1005      146.912 
-3.87901e-05      10.8091      114.953 
-3.85621e-05      2.02462      73.3516 
-0.000190134      4.50699     -148.424 
-1.94322e-05      4.49884     -79.2430 
1.94215e-05      13.0111     -44.7500 
3.85052e-05      10.5420     -164.937 
-0.000153782      10.2203      90.2230 
3.87020e-05      9.91772     -164.563 
-9.60816e-05      11.8257     -48.0839 
1.93652e-05      9.46716      95.6997 
-7.70534e-05      12.5666     -54.2599 
1.93459e-05      6.80060     -96.2459 
-3.86471e-05      8.13314      55.2176 
0.000230289      11.8333     -121.030 
-0.000134443      10.3344      118.054 
-0.000153747      4.02106     -88.5778 
-9.61147e-05      11.1462      24.0353 
-3.85729e-05      12.7015     -134.107 
7.67761e-05      12.4615     -142.302 
1.92968e-05      10.0166      164.243 
3.84896e-05      12.9901     -138.309 
0.000268610      13.6131     -48.2757 
-3.84056e-05      10.8272      140.546 
-5.76057e-05      12.2412      129.099 
1.92482e-05      10.6054      137.830 
7.67754e-05      9.83697     -147.539 
-5.76337e-05      10.8176      115.051 
-5.75285e-05      13.1010     -140.573 
9.57939e-05      9.46912      95.8172 
-0.000172481      13.0780      51.3967 
1.92360e-05      10.0905     -165.301 
-8.03174e-05      11.3582      28.7307 
-9.58315e-05      12.4775     -37.6411 
7.18855e-05      5.44465      66.1658 
-9.57886e-05      13.1711      133.463 
-0.000118881      11.9579      37.8680 
-3.83267e-05      11.6313     -48.4156 
-1.92396e-05      4.50266     -78.9897 
-9.57684e-05      12.8911     -133.049 
-0.000134261      12.6885     -53.6560 
5.74756e-05      11.1450      151.135 
7.66299e-05      11.7040      119.367 
-5.74075e-05      11.6776      34.5336 
-9.58441e-05      11.9001     -53.1308 
-7.66516e-05      12.6874     -134.041 
1.91782e-05      9.89819     -164.532 
-0.000115014      13.0118     -130.324 
5.75356e-05      13.0047     -138.366 
-1.91217e-05      9.44189      34.2963 
3.82801e-05      12.0344     -35.8031 
-0.000114912      10.8528      115.195 
1.91290e-05      6.61229      113.155 
-5.74602e-05      4.68658      18.6670 
0.000153416      13.9163     -44.7662 
3.83012e-05      11.2739      151.842 
-5.75430e-05      9.91690      67.4692 
3.82388e-05      9.86531     -164.357 
-0.000134068      12.2723      42.5567 
-0.000134128      11.1545      24.1304 
5.74859e-05      11.0437      150.371 
-1.91147e-05      8.26602     -145.351 
5.74179e-05      11.7215     -34.1509 
1.91048e-05      7.35044      21.0476 
5.73856e-05      9.86724     -99.9186 
1.92190e-05      11.8643      40.2130 
1.91354e-05      10.6198      137.901 
-1.91621e-05      2.77640      71.9568 
3.82951e-05      6.80284     -96.4156 
-0.000134190      12.6296      35.9793 
5.74739e-05      10.0709     -165.272 
7.65143e-05      11.0400     -60.8338 
-5.75168e-05      13.0538      134.564 
-5.73401e-05      8.12203      55.3306 
1.91396e-05      10.2131     -83.1387 
5.74047e-05      11.7281      142.623 
3.83529e-05      8.30431     -12.0958 
-3.83470e-05      4.51874     -79.2909 
-3.82838e-05      6.39470     -66.3980 
5.73929e-05      8.86225      20.8888 
1.91231e-05      9.49937     -32.1848 
1.91452e-05      7.82396      7.34517 
7.65988e-05      9.74164      27.5125 
3.82379e-05      14.2849      45.6810 
7.66166e-05      12.3420      138.614 
-8.24124e-05      8.41497      60.9985 
0.000115007      14.1149     -45.8034 
-5.75943e-05      13.1308     -128.755 
-3.82951e-05      10.8144      140.629 
-1.91399e-05      12.2810      126.122 
-5.74437e-05      9.82928      138.135 
-0.000132448      3.56662     -146.664 
-1.91548e-05      7.85342     -103.398 
7.66847e-05      12.0376      123.136 
1.91052e-05      6.75492     -167.691 
1.91284e-05      9.44167     -101.856 
3.82560e-05      11.8512      40.1382 
-1.91472e-05      8.74821     -64.2548 
-3.84504e-05      10.0869     -6.60426 
-5.75215e-05      12.9049     -133.115 
-5.75065e-05      10.8612      115.289 
-1.91155e-05      6.13484     -74.1056 
3.83026e-05      14.0356      136.733 
-1.91569e-05      11.6162      138.349 
1.91465e-05      12.1879     -146.988 
1.91810e-05      9.51653     -32.1198 
1.92261e-05      10.4219     -100.727 
1.92052e-05      10.2332     -83.1522 
1.91144e-05      9.28052      11.9414 
1.91612e-05      12.3940     -140.040 
-1.91514e-05      11.3776      117.197 
-1.92049e-05      12.5502      54.2059 
-1.92611e-05      11.3873      131.867 
1.92342e-05      11.6768      119.332 
-1.92418e-05      11.0583     -30.7871 
1.91794e-05      11.0268      150.321 
-1.91660e-05      6.23457     -26.8920 
-1.91626e-05      9.92788      67.6220 
-1.91903e-05      5.31526     -168.056 
-0.000137941      11.3777     -26.0682 
-7.87383e-05      11.0848     -27.8592 
-0.000191736      10.3440     -125.317 
0.000115618      10.2583     -16.4227 
-0.000180208      11.0669     -27.9082 
4.45849e-05      8.94044      61.5442 
-7.90985e-05      11.3076     -51.7505 
-0.000184465      11.7540      123.691 
-8.36850e-05      11.4972      132.180 
0.000119879      9.80300     -91.4036 
0.000231707      10.0220      164.135 
8.12658e-05      10.8669      51.8030 
-0.000300027      12.5017     -35.1639 
-7.95437e-05      8.40553      61.1148 
0.000143220      9.68032     -84.7831 
0.000100855      9.39027      134.654 
-2.12883e-05      11.6652     -60.9733 
8.00124e-05      12.2355     -39.3606 
-0.000117217      11.3076      128.249 
-6.05426e-05      10.9325     -129.133 
-9.66380e-05      11.2134     -137.747 
-5.81022e-05      10.0127      44.6782 
4.07263e-05      8.95760      61.6037 
-0.000132671      11.3838      28.5484 
-5.92355e-05      8.73346      176.848 
2.04899e-05      10.2396     -16.4535 
-0.000132101      8.97712     -67.6045 
-0.000299451      11.6554     -61.0604 
-0.000109593      10.3867     -30.1679 
-0.000264160      8.07880      131.189 
-5.58285e-05      6.37790      29.6989 
0.000129294      10.3977      161.494 
4.01981e-05      12.2791     -39.3160 
-3.90782e-05      11.3355     -51.7365 
-0.000182935      11.4555      132.101 
-3.94808e-05      10.7809     -66.1468 
-0.000129689      9.15186      108.080 
-3.85006e-05      11.2284     -137.817 
0.000192805      11.5435      124.269 
0.000534678      13.0819     -44.5677 
-1.97446e-05      11.3152     -26.1130 
-0.000239617      8.17904      13.2866 
0.000168519      10.7821     -155.099 
3.86470e-05      10.2422      115.816 
-1.93947e-05      4.51763     -148.205 
-0.000339368      11.8795     -42.2043 
1.92621e-05      7.85156     -43.4510 
-3.80605e-05      6.99408      120.596 
3.78489e-05      9.45035     -41.4817 
0.000118247      7.57156     -162.477 
5.37228e-05      12.4471     -128.214 
1.89633e-05      10.6285      123.332 
1.89446e-05      10.5925     -45.2267 
-8.50083e-05      13.6122      136.903 
3.64682e-05      10.3606      80.5581 
-6.85405e-05      11.4686      132.173 
-1.86668e-05      2.61188      130.035 
-0.000103730      8.31631     -61.0945 
0.000317313      9.40452      134.741 
3.63221e-05      9.55712     -31.8294 
-0.000170360      11.3327     -26.0696 
-0.000177757      8.24197     -178.748 
6.80062e-05      8.96725      61.4898 
0.000148724      10.6426     -50.5648 
1.84296e-05      7.83686     -43.5529 
-1.84157e-05      5.31270     -77.1631 
-1.83804e-05      10.9202     -129.054 
-0.000212438      12.3937      55.3862 
0.000149503      12.9951     -42.5054 
1.83118e-05      10.8471     -45.0757 
1.82926e-05      9.89702     -76.9194 
5.24875e-05      8.82519     -45.7338 
5.27697e-05      11.0131     -62.1778 
-1.82977e-05      10.5987      63.4331 
3.61969e-05      8.89628     -73.2739 
3.55284e-05      10.8794      51.7191 
-5.15379e-05      8.92005      179.614 
-0.000115344      3.87647      15.2522 
-0.000116927      6.98417      120.458 
3.53532e-05      10.6343      123.181 
-6.69750e-05      7.12556      8.88103 
5.27477e-05      10.3730      51.3376 
1.80048e-05      9.88238     -91.1617 
0.000132405      12.1767     -39.4688 
-1.78873e-05      3.95436      97.5566 
3.52083e-05      10.8610     -45.1484 
1.77822e-05      8.98666     -8.83310 
-0.000295716      9.82117      153.905 
0.000250940      8.78631      25.0462 
3.35704e-05      10.2406     -82.8187 
-3.39669e-05      5.29734     -76.9087 
-0.000146658      12.7056      133.215 
-0.000173861      11.0004     -33.0548 
1.76091e-05      9.15461     -128.347 
-1.76081e-05      8.97979      65.9495 
3.37813e-05      8.87688     -73.2363 
-8.31707e-05      11.2791      128.232 
-6.81581e-05      11.6270      34.3465 
-6.60139e-05      10.9168     -129.200 
-1.74804e-05      10.7731     -66.2417 
5.10984e-05      10.7923     -155.238 
-1.74820e-05      5.76361      167.167 
-0.000144408      8.98457     -67.4895 
0.000130883      11.4981     -45.4944 
-1.73365e-05      4.33247     -103.073 
-0.000144256      10.8842     -126.935 
-1.72874e-05      9.40040     -153.601 
-0.000125535      5.33021     -11.6880 
-1.71646e-05      7.54370     -16.3204 
8.10214e-05      12.4930      37.5864 
8.13849e-05      10.8753     -45.2236 
4.78129e-05      9.40108     -115.857 
5.01719e-05      8.85820     -73.1999 
0.000110010      3.23112      164.937 
6.17671e-05      9.00981     -8.94062 
-7.98324e-05      12.7415      127.859 
-6.48862e-05      8.22171     -178.745 
1.69514e-05      9.55023     -31.9930 
3.25887e-05      10.8107     -155.283 
-9.64254e-05      4.31739     -103.396 
0.000200421      10.3604      51.4251 
-1.68702e-05      9.82441     -74.7760 
-1.67926e-05      9.81627      138.220 
3.29934e-05      11.1610     -156.558 
0.000110151      12.0759      132.383 
-3.26752e-05      9.07737      107.437 
6.40088e-05      9.88071      166.303 
-4.80971e-05      5.26421     -74.8029 
-1.66938e-05      8.84586     -63.8414 
0.000155746      10.4039      161.393 
7.85783e-05      9.53369     -32.0551 
-0.000197297      9.12008      107.877 
1.65538e-05      9.40993     -115.968 
-0.000259357      6.88920      162.773 
-1.65017e-05      7.40070     -37.6472 
1.65078e-05      10.5557      121.912 
7.69555e-05      9.78274     -91.4065 
-9.23232e-05      9.59555      49.9041 
-0.000141269      9.84929     -74.6932 
7.83859e-05      11.0223     -62.0881 
0.000125532      12.6036     -38.2352 
-7.72020e-05      6.15297      113.564 
4.58949e-05      7.24368     -51.3884 
-9.29732e-05      11.6160      34.2670 
-0.000108922      11.3931      28.6346 
7.78917e-05      9.37869     -136.293 
4.71097e-05      10.3640      80.4477 
-0.000236819      5.74459      167.124 
1.61636e-05      10.8920      51.6355 
4.65475e-05      9.18307     -128.367 
9.09035e-05      8.98980     -8.96069 
-3.15769e-05      13.8597      137.631 
-6.22042e-05      13.8268     -137.168 
4.72733e-05      12.0294     -35.9349 
-1.60848e-05      10.3275     -125.382 
6.21805e-05      8.27078      33.9597 
-3.12654e-05      5.44498     -172.613 
-1.59848e-05      4.65106     -26.0194 
-0.000149998      7.41675     -37.5516 
7.70794e-05      8.85237     -73.3254 
6.13541e-05      9.68212     -84.6681 
-4.65571e-05      8.16116     -118.389 
-1.59074e-05      11.4109      28.5858 
-3.15565e-05      11.5999      34.3213 
3.11152e-05      10.7426     -27.1378 
-1.58440e-05      8.47103      154.100 
-3.13788e-05      10.3369      29.6897 
-3.10732e-05      12.2379      140.037 
-9.07010e-05      10.8787     -41.7202 
-9.14047e-05      8.28915     -61.1449 
0.000104980      6.69927     -63.5899 
0.000228177      12.2504     -49.9671 
1.56864e-05      7.86551     -43.5581 
1.56969e-05      3.78464      151.946 
3.09190e-05      10.5493      122.063 
4.62845e-05      9.38161      21.6423 
3.08950e-05      1.76077      74.8562 
-3.08354e-05      2.60377      65.0080 
0.000154914      9.04382     -126.820 
-1.56441e-05      9.13252      152.763 
3.08113e-05      9.49699      173.713 
4.56362e-05      9.28380      36.9440 
-1.55799e-05      5.29231     -76.2278 
3.10064e-05      10.4810      133.996 
-5.95579e-05      5.54979      120.539 
-1.54616e-05      10.4313     -30.1544 
1.54380e-05      12.1913     -44.2020 
-4.55114e-05      9.08323      107.555 
1.54986e-05      8.88652     -145.914 
-0.000152223      6.23162      138.119 
6.15522e-05      8.47085      162.976 
3.04291e-05      12.1175     -39.5752 
-4.50813e-05      11.2917      128.313 
-1.53642e-05      10.3162     -125.294 
3.03089e-05      4.81780     -12.7137 
1.53349e-05      6.40595      64.8728 
-1.53423e-05      9.71283     -56.0804 
3.03785e-05      11.0484     -113.131 
-1.53384e-05      10.3545      29.6342 
-1.53212e-05      13.2389     -134.019 
-1.52642e-05      5.29717     -76.0149 
-3.00906e-05      10.4728      127.395 
2.99922e-05      10.9041      51.5551 
3.00939e-05      11.5123     -45.4225 
-1.51268e-05      8.42482      60.8780 
1.50915e-05      8.46494      163.107 
-1.50788e-05      5.28730     -75.5437 
2.98847e-05      10.6296     -111.641 
1.50446e-05      3.76678      151.801 
-1.50507e-05      8.46220      154.223 
-1.50601e-05      11.7378      123.744 
1.50497e-05      8.90330     -145.987 
2.99954e-05      13.0095     -42.4473 
-1.50576e-05      8.12477     -118.203 
-2.99120e-05      10.6992     -30.0644 
-1.50312e-05      10.3645      29.7315 
-1.50288e-05      7.13741      49.6607 
1.50294e-05      10.8897     -45.2987 
-1.50511e-05      8.22843     -150.756 
8.90500e-05      9.06004     -126.744 
1.49878e-05      9.90040      166.330 
-1.49404e-05      10.4082     -40.7931 
-8.83437e-05      10.2499     -105.851 
-1.48834e-05      10.5402      36.4334 
8.15358e-05      12.9296     -139.015 
0.000245928      11.1338      147.023 
4.86425e-05      10.2624     -82.7243 
0.000141010      7.35091      169.180 
-0.000152476      11.3760      28.6816 
-0.000124258      11.3488      61.3557 
-4.79734e-05      4.66891      9.86502 
-0.000109309      12.0481      31.9736 
-0.000228139      7.01088      120.515 
-4.73881e-05      11.8945     -42.1387 
-6.21806e-05      9.80972      108.546 
-8.96628e-05      10.4236     -40.7203 
-0.000181403      8.30690     -61.2123 
-4.67050e-05      2.70640     -171.935 
-0.000136088      8.15932      13.3193 
1.58258e-05      6.72020      89.3154 
-7.56821e-05      8.94031      179.615 
-0.000134595      7.09950      16.7016 
-0.000140274      9.25750      81.6761 
-0.000179041      9.84396     -74.8069 
-1.55433e-05      6.90784      162.821 
-0.000133774      12.5134     -35.2397 
-7.48738e-05      9.86006      54.8283 
0.000104548      12.1177      137.542 
5.92909e-05      5.24987      153.534 
3.00838e-05      10.6275     -50.4980 
1.52138e-05      8.69580      51.4429 
0.000134364      12.9144     -138.956 
-3.00919e-05      9.12632      107.998 
0.000103672      8.45220      162.937 
-4.43539e-05      10.4121      126.956 
2.99160e-05      3.21156      164.844 
2.96069e-05      10.4665      134.073 
-5.93566e-05      10.2043     -54.8140 
1.50282e-05      11.3930      39.5857 
1.49983e-05     0.826223     -173.062 
-1.49465e-05      10.9017     -129.265 
-4.44823e-05      6.70889      13.6244 
-4.38664e-05      11.6729      138.336 
-1.48497e-05      2.61239      64.6053 
-4.41918e-05      11.7652      123.773 
4.43638e-05      10.3847      161.357 
1.47234e-05      9.49923      173.591 
1.46917e-05      8.18307      104.004 
4.39326e-05      10.2064      115.661 
-2.92813e-05      8.54435      164.661 
4.41778e-05      8.68319      51.5474 
4.40511e-05      10.6174      123.241 
-0.000136864      4.68545      9.57848 
-8.89316e-05      9.76320     -174.593 
1.46543e-05      11.4081      39.5233 
-6.09345e-05      11.3789      60.0569 
6.06090e-05      10.5500     -45.1527 
-3.04802e-05      7.10513      16.8523 
4.48531e-05      6.71998      89.4882 
-7.49642e-05      9.66709      40.0470 
3.02671e-05     0.828914     -171.672 
-3.00138e-05      13.5979      136.847 
5.96697e-05      7.24008     -51.1677 
-8.84453e-05      8.40778      60.8133 
2.93704e-05      10.3574      80.6646 
-2.96955e-05      10.9364     -53.4029 
1.49905e-05      10.8076     -157.705 
7.50684e-05      9.80252     -91.2852 
-7.36423e-05      4.85214     -83.3751 
5.98763e-05      9.96064      156.575 
7.41060e-05      5.02087      57.1958 
-2.96489e-05      11.6578      138.269 
-2.91814e-05      10.7575     -147.375 
7.37558e-05      8.46432     -166.193 
1.53698e-05      10.1213      156.474 
7.37576e-05      9.06514      91.8975 
7.36521e-05      10.8263     -157.746 
2.95857e-05      11.9231     -44.2529 
-1.48046e-05      11.2950     -51.8312 
-4.39919e-05      13.8560     -137.280 
-4.38819e-05      5.57754      120.612 
-7.40109e-05      11.3196      128.327 
4.49738e-05      6.02042     -29.8884 
2.91761e-05      8.93630     -146.130 
-7.31005e-05      10.8721     -126.849 
4.59489e-05      5.22372      153.630 
-5.95562e-05      9.84884      54.9211 
-1.50237e-05      8.96057      179.616 
-4.42735e-05      12.9805      129.749 
-5.85906e-05      6.24672      138.243 
-2.92751e-05      13.8489     -43.6542 
-2.91999e-05      11.3582      61.2693 
-2.92536e-05      10.3470      29.7871 
-4.37772e-05      8.17045     -118.509 
-2.91160e-05      11.6223     -31.7752 
-2.90430e-05      10.9243      37.0376 
2.90888e-05      9.33131      85.3274 
-2.95312e-05      8.17457      13.1535 
1.48246e-05      10.2381     -82.9312 
4.41474e-05      7.25280     -51.0430 
1.47951e-05      5.93437      163.153 
-2.90673e-05      10.9521     -53.4638 
1.45918e-05      10.0325     -165.214 
1.46000e-05      11.5873     -54.5551 
2.92415e-05      9.84803     -170.062 
-1.49583e-05      9.24426     -140.180 
1.46993e-05      12.1646     -43.9353 
-1.46204e-05      11.7761      123.852 
1.44960e-05      13.3613      132.694 
-1.44975e-05      10.9835     -33.1125 
1.44876e-05      11.7163      142.699 
1.44262e-05      6.72644     -63.5121 
-1.44237e-05      9.84351      54.7604 
-1.44017e-05      10.6371     -30.1319 
-1.43990e-05      5.95473      135.955 
! Tentative model.
! Flux (Jy) Radius (mas)  Theta (deg)  Major FWHM (mas)  Axial ratio   Phi (deg) T \
! Freq (Hz)     SpecIndex
1.52470e-05      5.22349      153.631 
