! Center RA: 12 21 31.69052,  Dec: +28 13 58.50022 (2000.0)
! Established model.
! Flux (Jy) Radius (mas)  Theta (deg)  Major FWHM (mas)  Axial ratio   Phi (deg) T \
! Freq (Hz)     SpecIndex
  0.104113    0.0200000      0.00000 
 0.0564779    0.0400000      0.00000 
 0.0292130    0.0447214     -26.5651 
0.00848265    0.0848528      45.0000 
0.00469697    0.0282843     -45.0000 
0.00174897     0.100000      53.1301 
0.00284463     0.113137      45.0000 
0.000939234     0.128062      51.3402 
0.000932608     0.263059      98.7462 
 0.0166975     0.116619      59.0362 
0.00336465     0.260768      94.3987 
0.00870788     0.260000      90.0000 
 0.0166849     0.134164      63.4349 
0.00101613     0.144222      56.3099 
0.00546726     0.260768      85.6013 
0.00860406    0.0721110     -33.6901 
0.00363497     0.280713      85.9144 
0.00628330     0.107703      68.1986 
0.00392270     0.282843      81.8699 
0.00412412    0.0565685     -45.0000 
0.00148082     0.360555      93.1798 
0.000475179     0.263059      81.2538 
0.00232611     0.100000     -36.8699 
0.000477395     0.266833      77.0054 
0.00411333     0.380526      93.0128 
0.000671330     0.240832      94.7636 
0.00478930    0.0848528     -45.0000 
0.000214319     0.220907      95.1944 
0.00255136     0.223607      100.305 
0.000409804     0.252982      71.5651 
0.000382130     0.260000      67.3801 
0.00100090     0.268328      63.4349 
0.000694976     0.380000      90.0000 
0.000481007    0.0447214      153.435 
0.000167306     0.400500      92.8624 
0.00363972     0.400000      90.0000 
0.000872451     0.128062     -38.6598 
0.00163338     0.247386      104.036 
0.000571657     0.277849      59.7436 
0.000828356    0.0632456      161.565 
0.000139218     0.228035      105.255 
0.00160647     0.113137     -45.0000 
0.000383460     0.272029      53.9726 
0.000360829    0.0824621      165.964 
0.000122083    0.0600000      180.000 
0.000326731     0.288444      56.3099 
0.000774136     0.252982      108.435 
0.000555623     0.284253      50.7106 
0.00119056     0.420000      90.0000 
0.000334221    0.0800000      180.000 
0.000524588     0.156205     -39.8056 
0.000108097     0.611882      101.310 
0.000211414     0.101980      168.690 
0.000312764     0.184391      40.6013 
0.000724734     0.635610      102.724 
0.000207935     0.100000      180.000 
0.000100789     0.121655      170.538 
9.97948e-05     0.101980      78.6901 
! Tentative model.
! Flux (Jy) Radius (mas)  Theta (deg)  Major FWHM (mas)  Axial ratio   Phi (deg) T \
! Freq (Hz)     SpecIndex
0.00287741    0.0632456     -71.5651 
0.00358402    0.0400000     -90.0000 
0.000291378     0.243310      99.4623 
0.000560821     0.220907      95.1944 
0.00140190     0.223607      100.305 
0.000608663     0.404475      81.4692 
0.000684975     0.588558      99.7824 
0.00137195     0.184391      40.6013 
0.00189871     0.384708      81.0274 
0.00239663     0.585491      97.8533 
0.000418824    0.0721110     -56.3099 
0.00201943     0.608276      99.4623 
0.000586118     0.172047      35.5377 
0.00175312     0.156205      39.8056 
8.70124e-05     0.313050      63.4349 
8.29789e-05     0.316228      55.3048 
0.00124180     0.401995      84.2894 
0.000441130     0.312410      50.1944 
7.85615e-05     0.382099      83.9910 
0.000282301     0.628013      99.1623 
0.00255936     0.973242      99.4623 
0.000134402     0.100000     -53.1301 
0.000266218     0.742159      104.036 
0.000612853     0.101980      168.690 
0.000129361     0.311127      45.0000 
0.000129380     0.240832     -41.6335 
0.000188859     0.766551      105.124 
0.000531584     0.269072     -41.9872 
0.000604111     0.325576      42.5104 
0.000625030     0.761577      103.671 
0.000674665     0.898888      110.854 
0.000374419     0.215407      111.801 
0.000270349     0.126491      161.565 
0.00146144     0.282843     -45.0000 
0.000299530     0.161245      29.7449 
0.000504222     0.970155      98.2971 
0.000712696      2.32912      110.614 
0.000580687     0.145602      164.055 
0.000344573     0.924770      111.571 
0.000958052      3.89076      109.832 
4.82078e-05      2.02158      92.2680 
0.000186946      2.02089      91.7014 
4.74507e-05      2.24722      106.015 
0.000450146     0.223607      116.565 
0.000175167      2.26645      105.876 
0.000222106     0.178885      26.5651 
0.000887834     0.340588      40.2364 
0.000573828     0.932309      112.714 
0.000177961      1.96163      106.587 
4.52675e-05      2.17816      103.271 
0.000917211      2.00040      91.1458 
0.000120625     0.421900      84.5597 
0.00168549      8.87876      110.435 
0.000999711      1.19013      114.842 
8.17706e-05      2.26106      105.388 
0.000279832      2.36947      111.801 
0.000430104      1.93680      106.189 
0.00111925      3.26588      118.134 
8.16916e-05      2.15870      103.392 
0.000157286     0.196977      23.9625 
3.89564e-05      2.27015      104.281 
0.000198013      7.00403      110.039 
7.61703e-05      2.16342      103.908 
0.000320021      7.01091      110.193 
0.000145353      2.28009      103.183 
0.000214437      2.40308      112.510 
0.000319785      2.27561      102.693 
3.67751e-05     0.170880      159.444 
0.000276591      2.14401      104.036 
0.000129751     0.215407      21.8014 
7.03698e-05      2.44000      100.389 
0.000562883     0.189737      161.565 
0.00148895      2.76904      98.3057 
0.00104139      2.10381      119.002 
0.000225985     0.940213      113.839 
0.000863870      6.80541      108.861 
0.000292910      2.94354      117.958 
0.000328716     0.311127     -45.0000 
0.000995943      2.29513      102.583 
0.000302216      2.14895      104.554 
8.81032e-05      2.43705      113.199 
0.000816385      6.59024      108.215 
0.000190683     0.233238      120.964 
0.000943203      1.39743      99.0579 
6.02585e-05     0.757100      102.200 
8.83574e-05     0.958541      113.356 
0.000459724      6.81390      102.200 
0.000810935      2.00010      90.5729 
0.000346844      5.45505      119.667 
0.000815976      5.46498      119.849 
0.000113643      1.94247      106.756 
0.000430023      4.17354      100.771 
0.000309932     0.966644      114.444 
2.87685e-05      2.45618      99.8458 
0.000566213      5.60988      115.103 
0.000712592      6.33482      101.842 
8.39351e-05      3.25650      117.824 
0.000359432     0.234094      19.9831 
5.55690e-05     0.776660      101.889 
0.000514178      9.56803      127.014 
0.000632327      2.12960      104.689 
5.41436e-05      3.19756      102.645 
0.00148611      2.92882      146.418 
0.000536841      1.19867      115.710 
0.000415053      7.03659      110.289 
2.73316e-05      3.88402      109.555 
0.000213934      2.45284      99.3855 
2.71111e-05      3.24721      117.512 
0.000628700      6.18556      114.245 
7.73016e-05      3.21160      115.448 
0.000475983      1.96743      107.146 
7.70969e-05     0.772787      100.437 
5.25234e-05      3.21994      116.565 
0.000168276      3.56634      102.633 
0.000566442      1.17201      115.253 
4.95060e-05      2.28963      107.802 
0.000279791      2.95296      118.301 
0.000828861      6.62737      102.904 
0.000444524      3.21104      116.246 
0.000168348      5.29199      113.853 
0.000158376     0.297321     -47.7263 
0.000262918      3.59026      102.875 
4.78373e-05     0.933809      99.8658 
0.00101394      9.55600      126.918 
0.000249979     0.208806      163.301 
4.68295e-05     0.792464      100.176 
0.000202681      6.49049      99.5784 
0.000371647      6.81815      102.365 
6.35398e-05      2.28359      107.324 
0.000429702      5.82278      116.301 
0.000308403     0.789177      98.7462 
0.000105328     0.975090      115.514 
0.000425110      5.30011      114.050 
4.29047e-05     0.937443      101.070 
0.000327031      4.17732      101.041 
0.000361835      5.16236      121.535 
0.000170097      2.12462      104.167 
0.000290809      2.96250      118.641 
9.88073e-05      2.44965      98.9240 
0.000400736     0.312410     -50.1944 
9.02346e-05     0.983870      116.565 
8.33230e-05     0.917823      101.310 
0.000470940      9.28590      125.710 
1.90511e-05      2.08634      119.268 
3.66772e-05      4.19695      100.989 
8.58143e-05      3.20225      115.925 
0.000248698      2.09619      119.745 
0.000266992      6.60924      108.161 
0.000139790      1.99249      107.526 
8.88790e-05      4.32601      108.602 
5.37895e-05      2.34955      120.713 
0.000237573      3.35076      124.544 
6.58065e-05      2.29120      106.220 
3.53763e-05      3.20306      115.125 
4.68243e-05      3.56202      102.319 
0.000485494      4.47147      124.614 
0.000351465      3.58586      102.563 
0.000154627      6.21257      107.035 
0.000181209      6.48719      99.4042 
9.67688e-05      2.33940      120.292 
0.000123412      3.21279      114.651 
0.000357814      5.80486      116.388 
6.47931e-05      4.35137      108.768 
0.000104528     0.228035      164.745 
0.000107940     0.808950      98.5308 
0.000225424      2.88444      146.310 
0.000219264      4.20081      101.256 
7.66671e-05     0.992975      117.597 
0.000190956      1.42042      99.7276 
0.000103452      6.94806      105.356 
8.69158e-05      2.97214      118.980 
0.000175247      1.98655      106.975 
0.000116568      6.33075      101.665 
0.000244945      5.17285      121.724 
0.000206893      3.33946      124.261 
3.11616e-05      2.76261      145.620 
0.000101932      4.34497      108.518 
0.000212614      2.74612      145.384 
0.000141454      2.00000      90.0000 
8.42186e-05     0.786384      97.3058 
1.48797e-05     0.356090      38.1572 
1.47970e-05      2.11092      117.051 
0.000152213      9.27424      125.609 
0.000110365      2.11981      116.323 
9.67654e-05      6.82246      102.529 
6.82319e-05      1.00240      118.610 
9.50681e-05      5.63077      112.557 
2.75250e-05      7.06229      110.385 
1.39512e-05      5.60143      114.918 
9.39442e-05      3.35601      124.069 
2.70951e-05      2.10618      120.217 
2.67839e-05      3.20450      114.326 
2.68493e-05      4.37031      108.684 
2.68628e-05      6.20674      106.858 
1.31186e-05      4.36394      108.435 
