! Center RA: 12 21 31.69052,  Dec: +28 13 58.50011 (2000.0)
! Established model.
! Flux (Jy) Radius (mas)  Theta (deg)  Major FWHM (mas)  Axial ratio   Phi (deg) T \
! Freq (Hz)     SpecIndex
 0.0605707    0.0335410     -63.4349 
 0.0251372    0.0212132     -45.0000 
0.00839319      0.00000      0.00000 
0.00768077    0.0300000      90.0000 
0.000475588     0.120000      90.0000 
0.000471390    0.0150000     -90.0000 
0.000467117     0.150000      90.0000 
0.000463447    0.0450000     -90.0000 
0.000459456     0.165000      90.0000 
0.000905136    0.0600000     -90.0000 
0.000897752     0.180000      90.0000 
0.000442462    0.0750000     -90.0000 
0.000439039     0.195000      90.0000 
0.000866476    0.0900000     -90.0000 
0.00128162     0.210000      90.0000 
0.00166538     0.105000     -90.0000 
0.00123260     0.225000      90.0000 
0.00158432     0.120000     -90.0000 
0.00157410     0.240000      90.0000 
0.00187830     0.135000     -90.0000 
0.00222711     0.255000      90.0000 
0.00245765     0.150000     -90.0000 
0.00139586     0.270000      90.0000 
0.000686364     0.270416      93.1798 
0.00410011     0.165680     -95.1944 
0.00407597     0.285394      93.0128 
0.00555067     0.180624     -94.7636 
0.00455727     0.300375      92.8624 
0.00423510     0.316425      95.4403 
0.00696325     0.195576     -94.3987 
0.000597149     0.333054      97.7652 
0.000195254     0.423468      112.932 
0.000193567     0.315357      92.7263 
0.000191883     0.443199      113.962 
0.000377907     0.300375      87.1376 
0.000374912     0.469574      116.565 
0.000184737     0.286575      83.9910 
0.000364139     0.489745      117.350 
0.000539095     0.288531      81.0274 
0.000178257     0.496815      118.887 
0.000175879     0.510000      118.072 
0.000347827     0.291247      78.1113 
0.000681542     0.517228      119.539 
0.000670148     0.280223      74.4759 
0.000806477     0.537703      120.141 
0.00281735     0.212132     -98.1301 
0.000948148     0.284605      71.5651 
0.00131153     0.558234      120.700 
0.00158113     0.289698      68.7495 
0.000285909     0.571183      119.932 
0.000820144     0.591692      120.466 
0.000784817     0.295466      66.0375 
0.00279943     0.226991     -97.5946 
0.000262630     0.784889      116.075 
0.000254055     0.804984      116.565 
0.000249326     0.545390      121.504 
0.00107809     0.309233      67.1663 
0.000367546     0.818428      116.095 
0.000121792     0.524786      120.964 
0.000582225     0.511981      121.827 
0.000466141     0.831925      115.641 
0.000760998     0.315357      64.6538 
0.000652842     0.845473      115.201 
0.000542454     0.499299      122.735 
0.00168808     0.210535     -94.0856 
0.000605239     0.486749      123.690 
0.000795335     0.865462      115.677 
0.000602044     0.322064      62.2415 
0.000651021     0.474342      124.695 
0.000559944     0.329317      59.9314 
0.00129445     0.879005      115.253 
0.000687083     0.337083      57.7244 
8.85902e-05     0.462088      125.754 
0.000510501     0.471010      127.235 
0.000959919     0.210000     -90.0000 
0.000553086     0.459157      128.367 
0.000773338     0.345326      55.6197 
0.000529312     0.892595      114.842 
0.000370019     0.457193      131.009 
7.43346e-05     0.232863     -104.931 
7.27281e-05     0.283019     -122.005 
7.24946e-05     0.354013      53.6156 
7.21017e-05     0.204022     -72.8973 
! Tentative model.
! Flux (Jy) Radius (mas)  Theta (deg)  Major FWHM (mas)  Axial ratio   Phi (deg) T \
! Freq (Hz)     SpecIndex
0.000287249     0.120934     -82.8750 
0.000279778     0.391152      122.471 
0.000105833     0.123693     -75.9638 
9.27167e-05     0.212132     -135.000 
9.18424e-05     0.128160     -69.4440 
0.000181206     0.403887      121.329 
9.09241e-05     0.244182     -137.490 
9.02631e-05     0.129035     -54.4623 
0.000177350     0.267067     -141.843 
0.000264060     0.416773      120.256 
8.87402e-05     0.138293     -49.3987 
8.73702e-05     0.138293     -40.6013 
8.66151e-05     0.279016     -143.746 
0.000170897     0.150000     -36.8699 
8.59314e-05     0.429796      119.249 
8.53821e-05     0.291247     -145.491 
0.000168947     0.437321      120.964 
8.41879e-05     0.300000     -143.130 
0.000166204     0.154434     -29.0546 
0.000245755     0.312130     -144.782 
0.000243611     0.450250      119.982 
8.14894e-05     0.161555     -21.8014 
0.000161260     0.463303      119.055 
0.000159912     0.171026     -15.2551 
0.000388466     0.324500     -146.310 
7.92947e-05     0.718905      113.356 
7.88550e-05     0.267067      38.1572 
7.79894e-05     0.732700      112.891 
7.80068e-05     0.167705     -26.5651 
7.72496e-05     0.288141      38.6598 
0.000153205     0.752396      113.499 
0.000152209     0.420268      124.824 
7.64931e-05     0.174929     -30.9638 
7.57966e-05     0.297741      40.9144 
0.000148376     0.183098     -34.9920 
0.000149180     0.766176      113.051 
0.000291198     0.337083     -147.724 
7.43560e-05     0.187949     -28.6105 
7.39522e-05     0.405278      128.991 
0.000146438     0.307774      43.0251 
0.000357314     0.785891      113.629 
7.27779e-05     0.403609      131.987 
0.000281942     0.192094     -38.6598 
7.16404e-05     0.392588      136.548 
7.13473e-05     0.318198      45.0000 
7.04107e-05     0.393732      139.635 
7.01895e-05     0.328976      43.1524 
0.000205674     0.349857     -149.036 
6.93369e-05     0.387105      144.462 
0.000337423     0.805683      114.179 
0.000203179     0.339411      45.0000 
0.000135421     0.396011      142.696 
0.000201645     0.201804     -41.9872 
6.63470e-05     0.391152      147.529 
0.000194395     0.357806     -146.976 
0.000130010     0.350179      46.7357 
0.000193091     0.213190     -39.2894 
0.000436052     0.399406      145.713 
0.000256743     0.819390      113.749 
6.38452e-05     0.212132     -45.0000 
0.000187574     0.361248      48.3665 
0.000305347     0.825545      114.702 
0.000420331     0.222991     -42.2737 
0.000299527     0.370473     -148.241 
0.000293625     0.372592      49.8991 
0.000117168     0.408044      143.973 
0.000175507     0.839196      114.274 
0.000115705     0.403887      148.671 
0.000224381     0.233345     -45.0000 
0.000440524     0.845473      115.201 
0.000219020     0.378583     -146.310 
0.000165631     0.384187      51.3402 
0.000269600     0.411886      146.889 
5.53162e-05     0.234307     -39.8056 
0.000609235     0.244182     -42.5104 
0.000129760     0.439118      97.8533 
5.33325e-05     0.409420      151.557 
0.000105794     0.382426      48.1798 
5.23812e-05     0.859069      114.775 
0.000249889     0.391152     -147.529 
0.000493680     0.865462      115.677 
5.17055e-05     0.381838      45.0000 
5.12294e-05     0.450250      91.9092 
0.000246798     0.416773      149.744 
5.06107e-05     0.392588      46.5482 
4.98100e-05     0.450000      90.0000 
0.000146246     0.392588      43.4518 
0.000369882     0.450250      88.0908 
4.81710e-05     0.422670      152.526 
4.75123e-05     0.424529      147.995 
9.34125e-05     0.393732      40.3645 
0.000572504     0.254558     -45.0000 
0.000386331     0.399406     -145.713 
0.000443497     0.465242      88.1524 
0.000271311     0.885508      116.131 
0.000474490     0.429796      150.751 
0.000176501     0.396011      37.3039 
0.000374883     0.892216      116.996 
0.000312676     0.480234      88.2101 
0.000164598     0.399406      34.2869 
0.000307849     0.265377     -42.7094 
0.000348516     0.265377     -47.2906 
3.98241e-05     0.891207      83.2338 
0.000366697     0.442945      151.699 
0.000152929     0.411886      33.1113 
0.000192938     0.899125      117.848 
7.73803e-05     0.907965      82.4054 
0.000348379     0.408044     -143.973 
3.82107e-05     0.403887      31.3287 
7.43755e-05     0.924905      81.6071 
7.43073e-05     0.912414      117.408 
0.000315613     0.919416      118.237 
0.000176617     0.416773      30.2564 
0.000106970     0.939747      81.7406 
0.000101428     0.465000      90.0000 
0.000134312     0.956831      80.9807 
3.40500e-05     0.480000      90.0000 
0.000161905     0.422670      27.4744 
6.64123e-05     0.275772     -45.0000 
0.000286552     0.926607      119.055 
0.000281573     0.456207      152.592 
3.28531e-05      2.56224      120.619 
6.31750e-05     0.429796      29.2488 
0.000126874      2.55463      120.329 
3.20290e-05     0.974076      80.2476 
0.000437702     0.276586     -49.3987 
0.000121678     0.988863      80.3948 
0.000239792     0.417043     -142.306 
0.000149157      2.54709      120.038 
0.000259746     0.933983      119.859 
0.000144882     0.436033      26.5651 
0.000186233     0.267067     -51.8428 
0.000192295     0.469574      153.435 
8.49171e-05      1.00623      79.6952 
5.68745e-05      2.53961      119.745 
2.85473e-05      2.98323      111.534 
0.000136938      2.97484      111.909 
8.21964e-05      2.53220      119.450 
8.07309e-05     0.442945      28.3008 
0.000333960     0.954476      120.192 
0.000228544      1.02099      79.8457 
0.000226073      2.98877      111.801 
0.000546169     0.405278     -141.009 
5.27908e-05      2.52486      119.154 
0.000217474     0.449500      25.7100 
5.13344e-05      2.51759      118.856 
0.000192191     0.476707      155.854 
2.51511e-05      2.52357      118.393 
2.48009e-05      2.51038      118.556 
0.000507702     0.270416     -56.3099 
2.44915e-05      2.51647      118.093 
4.79691e-05      2.50325      118.254 
0.000435064     0.962107      120.964 
4.67621e-05      2.49618      117.951 
0.000318365      2.99437      112.068 
2.34394e-05     0.450999      86.1859 
0.000174012      1.03847      79.1770 
6.79611e-05      2.48919      117.646 
2.25288e-05     0.456207      27.4076 
0.000280469     0.490433      156.571 
6.54412e-05      2.48226      117.339 
8.49662e-05     0.463060      24.9048 
6.30606e-05      2.47541      117.031 
2.08859e-05      3.01392      112.225 
6.14959e-05      3.40275      114.758 
8.07894e-05      2.46863      116.721 
6.03825e-05     0.456946      23.1986 
9.78091e-05      3.41638      114.652 
0.000129710      1.05321      79.3302 
3.88456e-05      2.44849      116.565 
7.58404e-05     0.435000      90.0000 
0.000257792     0.969910      121.724 
1.95087e-05     0.451248      21.4477 
1.94353e-05      2.46192      116.409 
0.000128965     0.465242      20.7723 
7.48562e-05      2.44182      116.250 
5.59721e-05      3.42266      114.880 
0.000138137      2.98047      112.176 
0.000123312      3.43628      114.775 
7.16668e-05      2.43523      115.934 
0.000102822     0.435259      91.9749 
0.000166924     0.504232      157.249 
5.19327e-05     0.460136      19.0256 
6.87206e-05      2.42870      115.615 
0.000600456     0.982700      121.264 
0.000172647     0.275363     -60.6422 
3.37549e-05      3.44990      114.671 
9.77697e-05     0.474342      18.4349 
0.000110701      1.05054      80.1342 
3.32509e-05      2.41519      115.769 
7.96903e-05      3.44259      115.002 
8.01185e-05      2.40870      115.448 
1.63560e-05      3.45619      114.897 
0.000333837     0.268328     -63.4349 
1.62173e-05      3.58324      110.331 
9.08714e-05     0.436033      93.9452 
3.15965e-05      2.96659      112.286 
3.13720e-05      3.57806      110.106 
9.70477e-05      2.38051      131.424 
4.61971e-05     0.469814      16.6992 
3.07209e-05      2.40230      115.125 
0.000126666      2.96093      112.017 
4.49690e-05      3.58704      109.799 
0.000128904     0.518097      157.891 
8.85073e-05      3.43539      115.334 
8.38207e-05      2.78326      123.347 
4.46831e-05      2.38872      115.278 
2.98366e-05     0.465725      14.9314 
2.90365e-05     0.462088      13.1340 
7.09416e-05      2.38236      114.952 
5.50075e-05      1.04807      80.9421 
2.85577e-05      3.58199      109.573 
5.59207e-05     0.480234      14.4703 
1.41674e-05      1.06532      80.2724 
9.48401e-05      3.44184      115.560 
0.000115331     0.437321      95.9061 
5.41518e-05      3.59612      109.493 
7.97641e-05      2.36244      114.775 
6.10961e-05      2.38193      130.914 
7.88974e-05     0.476707      12.7244 
0.000157049     0.532024      158.499 
3.70770e-05      1.04581      81.7537 
3.84936e-05      5.75345      118.837 
5.01776e-05      3.59115      109.267 
5.06842e-05      3.42831      115.668 
1.28592e-05      2.36929      131.664 
8.64608e-05      2.34255      114.596 
0.000120021      5.77383      118.896 
2.49005e-05     0.473630      10.9541 
6.03565e-05      1.06289      81.0694 
2.44489e-05      2.79580      123.179 
5.87937e-05      2.94703      112.126 
3.65594e-05      3.96011      114.624 
4.83542e-05      3.43484      115.894 
1.22012e-05     0.545390      31.5043 
4.57198e-05      2.37062      131.152 
5.47005e-05     0.393732     -139.635 
1.20280e-05     0.471010      9.16235 
9.88716e-05     0.990568      122.005 
6.88698e-05      3.98001      114.730 
2.35021e-05     0.553376      32.8285 
5.80727e-05      2.32268      114.413 
6.94935e-05      7.41408      124.365 
2.33340e-05      3.58622      109.041 
4.59733e-05     0.468855      7.35238 
0.000104839      3.42135      116.003 
1.15784e-05      2.94142      111.856 
2.20322e-05      2.78762      122.920 
1.12706e-05      2.32892      114.749 
8.62831e-05      5.78697      118.824 
0.000357404      7.40171      124.431 
6.39775e-05      3.58136      108.814 
3.24696e-05      1.04377      82.5686 
2.20947e-05     0.570197      35.3625 
5.45875e-05      2.30903      114.567 
0.000223202      4.00624      115.030 
9.40051e-05      5.78224      108.294 
1.10312e-05     0.467172      5.52754 
3.27013e-05     0.382426     -138.180 
6.37330e-05      3.40787      116.114 
1.09469e-05     0.546008      159.075 
0.000404925      1.06066      81.8699 
0.000227509      1.74929      112.166 
1.08329e-05      2.93885      112.507 
7.21947e-05     0.540833      160.560 
2.12673e-05     0.465967      3.69139 
4.97379e-05     0.384187     -141.340 
0.000127852     0.261964     -66.3706 
1.06138e-05      2.94463      112.777 
1.05953e-05     0.591122      35.7067 
0.000132830      2.31530      114.905 
3.03794e-05      1.62997      6.34019 
1.04100e-05      2.05040      138.262 
3.05527e-05      2.96594      115.139 
4.02766e-05     0.441418      99.7824 
1.03200e-05      1.61506      6.39896 
0.000105925      2.04044      138.576 
1.02855e-05      2.93314      112.237 
1.02359e-05      1.19474     -38.8845 
2.01330e-05     0.609118      37.9987 
0.000125263      5.80734      118.882 
1.01774e-05     0.450000      0.00000 
6.83179e-05      1.00332      121.551 
9.64999e-05      1.20421     -39.4401 
1.00870e-05      2.49352      125.698 
5.30807e-05     0.372592     -139.899 
4.81752e-05      1.63169      6.86369 
0.000123459      3.59556      108.737 
1.95746e-05      2.92750      111.965 
1.08310e-05      2.79214      122.495 
1.92256e-05     0.450250     -1.90915 
1.93916e-05      5.76800      108.341 
0.000211393     0.426644      100.125 
9.01770e-05     0.555000      161.075 
9.65259e-06     0.618466      39.0939 
1.88080e-05      2.96530      115.787 
0.000115012      5.76330      108.199 
1.85839e-05      2.47809      126.384 
9.65338e-05      1.01125      122.276 
9.43260e-06      2.95880      115.526 
8.58149e-05     0.256320     -69.4440 
1.85433e-05     0.628033      40.1560 
9.35709e-06      3.60041      108.963 
9.30419e-06      2.91641      111.418 
1.80592e-05     0.436033     -3.94519 
9.44642e-05     0.429535      102.095 
6.99153e-05      1.64659      6.80131 
0.000102594      1.21380     -39.9869 
3.46959e-05      2.95839      116.175 
0.000102313      5.82773      118.940 
1.77719e-05      2.91433      110.487 
2.61428e-05     0.637809      41.1859 
3.44374e-05      3.42795      116.229 
8.32336e-05      2.03055      138.894 
8.83578e-06      2.79681      122.071 
6.35050e-05     0.437321     -5.90614 
8.58438e-06      2.90396      109.933 
4.97860e-05      1.29878      165.964 
2.98407e-05      3.75809      112.778 
1.66234e-05      2.90311      108.997 
4.07850e-05      4.03257      115.326 
8.54513e-05      5.18128      132.419 
4.00746e-05     0.647785      42.1844 
4.76356e-05      2.30171      115.062 
3.22681e-05     0.569210      161.565 
2.36943e-05     0.371383     -136.637 
8.21064e-06      2.95161      116.565 
3.97616e-05      1.66331      7.25320 
3.20654e-05      5.74905      108.246 
2.37570e-05      3.44141      116.118 
5.21916e-05     0.251446     -72.6460 
8.07886e-06      2.89826      108.716 
2.39732e-05      1.30250      165.324 
6.02380e-05      2.94493      116.304 
0.000145972      1.76319      111.982 
1.59620e-05      5.84086      118.869 
7.94951e-06      2.90303      108.060 
3.82788e-05      1.01934      122.989 
1.55176e-05     0.258940     -79.9920 
6.11559e-05      5.84811      118.998 
0.000146313      1.31701      165.489 
3.07153e-05      4.05902      115.618 
7.81787e-06      2.89842      107.779 
6.64540e-05      1.22349     -40.5251 
4.57534e-05      5.74437      108.104 
3.05481e-05     0.583459      162.031 
8.76842e-05      7.38934      124.497 
0.000270675      2.02072      139.214 
7.67579e-06      2.89935      106.841 
1.51260e-05      3.73846      112.655 
2.97980e-05      1.67819      7.18854 
7.57384e-06      2.89504      106.557 
5.67682e-05     0.657951      43.1524 
2.88215e-05      3.45489      116.009 
7.25713e-05      2.89698      105.619 
3.58431e-05     0.256759     -83.2902 
2.20004e-05      4.06553      115.809 
0.000120873      2.30810      115.399 
3.61498e-05     0.597746      162.474 
1.45491e-05      3.62398      108.585 
6.37310e-05      5.73012      108.150 
9.71449e-05      5.86124      118.926 
3.50000e-05      1.02758      123.690 
7.18560e-06      2.50931      125.020 
4.52038e-05     0.424264     -8.13010 
3.48801e-05      1.69500      7.62815 
1.38435e-05      3.74427      112.867 
7.35172e-05      5.17117      132.296 
2.80738e-05      4.08557      115.907 
1.37966e-05      3.61923      108.360 
7.12814e-05      7.58634      120.672 
4.07327e-05     0.612066      162.897 
8.79992e-05     0.247386     -75.9638 
6.90070e-06      7.57344      120.730 
3.89020e-05     0.439118     -7.85331 
5.85765e-05      1.23329     -41.0548 
2.01613e-05      2.93832      116.042 
5.24926e-05      7.37698      124.563 
0.000206718      2.88254      105.700 
0.000110673      4.09214      116.095 
3.24256e-05      3.46837      115.900 
6.76526e-06      1.07771      81.1932 
2.00512e-05      5.36189      114.988 
0.000125963      1.33154      165.651 
2.63064e-05      1.70987      7.56143 
2.61407e-05      5.71587      108.197 
4.44839e-05      1.03598      124.380 
1.94115e-05     0.668300      44.0906 
3.82766e-05     0.626418      163.301 
0.000101833      5.35557      114.842 
2.95252e-05      3.61453      108.134 
0.000123620      5.88163      118.984 
3.08937e-05      2.93176      115.778 
4.31196e-05      1.72676      7.98933 
2.41945e-05      3.76392      112.989 
5.32183e-05     0.679154      43.2101 
1.85839e-05      5.70162      108.244 
4.73999e-05      7.36463      124.629 
4.18511e-05     0.640800      163.686 
0.000203918      5.17022      132.531 
2.92605e-05      3.48187      115.792 
2.38772e-05      1.24319     -41.5761 
6.07044e-06      7.00697      124.711 
2.79609e-05      3.78360      113.109 
0.000104438     0.424264      98.1301 
2.90821e-05      5.68737      108.292 
3.48221e-05      7.57870      120.575 
5.98677e-06      1.08010      80.4069 
2.88322e-05      6.99844      124.610 
3.89682e-05      1.04452      125.059 
1.88538e-05     0.960117      89.1048 
0.000163519     0.426644     -10.1247 
1.74508e-05      1.74162      7.92074 
5.85752e-06     0.976038      87.3575 
1.13861e-05      5.16009      132.408 
3.99928e-05      1.34608      165.809 
1.14803e-05      1.11496      79.1436 
4.49399e-05      2.91826      115.907 
5.77958e-06      1.25445     -41.1215 
2.81532e-05     0.655210      164.055 
5.78202e-05      1.78273      112.249 
4.36574e-05     0.945000      90.0000 
1.69483e-05      1.26437     -41.6335 
2.73239e-05     0.237171     -71.5651 
4.89497e-05      1.75859      8.33744 
1.11718e-05      1.34983      165.192 
1.10535e-05     0.244182     -79.3803 
2.69338e-05      5.67313      108.339 
5.56479e-06      1.13257      78.5412 
2.70876e-05      7.59162      120.517 
0.000202120      7.37317      124.725 
2.14375e-05      3.49539      115.685 
2.16508e-05      1.27438     -42.1376 
6.86892e-05      6.97758      124.578 
9.83799e-05      1.36434      165.353 
6.08153e-05     0.689511      44.1186 
5.46803e-06     0.659488      162.801 
5.45437e-06      1.15032      77.9574 
1.07305e-05     0.669645      164.407 
3.57981e-05      4.11222      116.191 
0.000100637      5.34928      114.697 
4.11170e-05     0.673832      163.179 
5.32024e-06      1.15354      77.2288 
0.000107048      5.90202      119.040 
0.000432409      1.28449     -42.6338 
1.96163e-05      2.91174      115.641 
5.86975e-05      7.58401      120.420 
5.83141e-05     0.232863     -75.0686 
1.02134e-05      3.56767      107.368 
1.03261e-05      1.17154      76.6755 
1.02241e-05      5.65890      108.387 
3.01227e-05      1.77565      8.74616 
3.86001e-05      3.78951      113.318 
2.92590e-05      5.91225      106.964 
3.35757e-05      1.05321      125.727 
6.14779e-05      4.11886      116.378 
5.07907e-06      3.50891      115.579 
1.48468e-05      1.18964      76.1390 
4.18337e-05     0.930121      90.9240 
2.40615e-05     0.429010     -143.531 
1.45916e-05      3.50191      115.907 
2.40265e-05     0.422404      96.1155 
1.45636e-05      5.64467      108.435 
0.000125276     0.688204      163.540 
1.41796e-05      3.56322      107.138 
5.93728e-05      1.79047      8.67317 
8.27675e-05      1.37886      165.510 
0.000289178      1.79662      112.068 
0.000173134      2.86810      105.781 
1.40528e-05      1.20785      75.6186 
2.23195e-05      3.51541      115.800 
4.68796e-06      5.63521      108.628 
3.71052e-05      2.28813      115.221 
1.37815e-05     0.409420      98.4270 
1.80944e-05      5.62100      108.677 
5.43115e-05     0.700036      45.0000 
4.55454e-06     0.441163     -144.689 
2.60281e-05     0.222991     -70.3462 
3.05544e-05      7.57643      120.322 
1.77247e-05      1.22615      75.1137 
4.94874e-05      5.90789      106.825 
4.25960e-05     0.407492      96.3402 
8.86506e-06     0.450000     -143.130 
8.76368e-06      3.55883      106.907 
2.11895e-05      3.79547      113.526 
5.06291e-05      5.90931      119.168 
2.84746e-05      1.06204      126.384 
4.34334e-06      5.61162      108.871 
5.03231e-05      1.39339      165.665 
0.000100688     0.930000      90.0000 
3.63352e-05     0.462088     -144.246 
2.07474e-05      6.96908      124.477 
3.13142e-05      3.52892      115.694 
4.27772e-06      3.80923      113.436 
2.07873e-05      5.59743      108.920 
3.95052e-05     0.218403     -74.0546 
2.06322e-05      1.80761      9.07150 
8.42928e-06      1.24455      74.6237 
1.23584e-05      1.80530      8.60139 
6.15413e-05      3.55449      106.676 
1.23504e-05      7.56886      120.224 
3.51034e-05      5.34196      114.910 
1.21669e-05      1.25902      74.8048 
0.000645364      1.29557     -42.1844 
3.07580e-05     0.392588      96.5819 
3.54968e-05      1.41167      165.225 
1.57946e-05      7.56132      120.126 
3.48853e-05      5.92242      119.097 
1.17900e-05      5.58814      109.116 
2.66053e-05      3.81522      113.642 
0.000289757      1.82242      8.99714 
7.69520e-06      2.91139      116.301 
1.16175e-05      1.26303      74.1481 
7.74683e-06      6.95672      124.547 
5.16368e-05      7.51093      119.688 
5.18223e-05      1.42618      165.379 
2.57259e-05      5.56476      109.363 
4.28021e-05      4.13897      116.472 
0.000101493      5.90356      106.685 
4.13987e-05     0.710721      45.8551 
4.33125e-05      6.94822      124.445 
2.16690e-05     0.483037     -143.842 
0.000133582     0.692604      162.350 
6.63060e-05      5.92973      119.224 
1.46031e-05      1.27747      74.3318 
7.30392e-06     0.379770      99.0903 
1.77886e-05     0.208926     -68.9625 
3.22892e-05      1.07100      127.030 
5.47616e-05     0.441418     -9.78241 
1.76518e-05      5.33471      115.124 
3.35192e-05      3.80149      113.733 
2.74276e-05     0.377690      96.8428 
4.47538e-05      1.44070      165.530 
2.68307e-05      5.55561      109.560 
1.04169e-05      1.28160      73.6861 
3.51787e-06      3.54245      115.589 
3.50859e-06      5.15917      132.643 
3.48663e-06      2.91807      116.565 
2.64487e-05     0.204022     -72.8973 
9.00913e-05      5.16934      132.766 
1.68078e-05     0.495227     -144.866 
6.80625e-06      3.53545      115.913 
0.000423202      7.52396      119.632 
2.67700e-05      2.29456      115.560 
2.58604e-05      5.32753      115.339 
1.31816e-05      1.29600      73.8724 
0.000151022      2.85367      105.863 
6.40555e-06      2.92481      116.828 
3.24162e-05      1.45523      165.677 
1.27266e-05      3.54895      115.807 
2.39407e-05     0.930121      89.0760 
6.47799e-06     0.364966      99.4623 
8.96797e-05      5.93706      119.350 
3.35139e-05     0.516140     -144.462 
3.20775e-06      5.54653      109.758 
2.16354e-05     0.362802      97.1250 
9.29477e-06      2.03210      139.490 
3.73008e-05     0.721561      46.6847 
1.53009e-05      1.30025      73.2374 
6.09555e-06      3.82126      113.848 
1.25088e-05      1.50255      165.548 
6.24647e-06      5.54148      109.612 
2.93647e-05     0.189737     -71.5651 
3.08936e-06      1.51708      165.689 
0.000415805      1.53162      165.828 
5.51368e-05      5.53242      109.811 
0.000110459     0.915000      90.0000 
1.48252e-05      5.31398      115.408 
1.17041e-05      3.80755      113.940 
0.000118877      3.78601      107.286 
1.17307e-05      3.56246      115.702 
0.000145258      5.89927      106.546 
1.16405e-05     0.350179      99.8658 
3.45078e-05      1.31462      73.4260 
1.14766e-05      2.55872      123.038 
5.54897e-06      3.79384      114.031 
1.39311e-05      5.30691      115.623 
3.71987e-05     0.537075     -144.090 
2.82842e-06     0.347922      97.4314 
3.04127e-05      4.15240      116.380 
2.81073e-06      2.92515      117.485 
5.52313e-06      3.57598      115.598 
2.12523e-05     0.456207     -9.46232 
2.41507e-05     0.335410      100.305 
2.75422e-05      2.54616      123.222 
9.35904e-05      5.95014      119.279 
2.74083e-06      3.78015      114.124 
5.33312e-06     0.175570     -70.0169 
1.04393e-05      1.05907      127.519 
2.53236e-05     0.171026     -74.7449 
2.06488e-05      5.29991      115.840 
4.54330e-05      7.38172      124.820 
2.66626e-06      3.58952      115.494 
5.42181e-05      1.31898      72.8015 
2.65129e-06      3.81366      114.146 
2.61845e-06      3.60306      115.392 
2.59206e-06      3.76646      114.217 
2.58839e-06      2.93847      117.350 
3.53472e-05     0.732547      47.4896 
5.98476e-05     0.697298      161.175 
1.74789e-05      5.17954      132.888 
5.08048e-06      3.79998      114.238 
2.19220e-05     0.320663      100.784 
2.53912e-06      3.59600      115.710 
7.28416e-06      3.60952      115.607 
2.75617e-05     0.458912     -11.3099 
2.91759e-05      1.05054      170.134 
9.22099e-05      5.29298      116.057 
3.05795e-05     0.558032     -143.746 
4.82473e-06      3.78630      114.331 
2.51497e-05      5.52342      110.010 
7.55717e-05      5.28641      115.911 
2.41904e-06      2.93211      117.745 
6.97331e-06      3.62305      115.504 
3.15245e-05      5.16856      133.001 
1.56133e-05      3.77264      114.425 
4.59875e-06      1.06827      128.157 
2.64402e-05     0.156605     -73.3008 
2.17942e-05     0.305941      101.310 
5.44221e-05      5.89502      106.406 
0.000147606      5.96323      119.209 
4.31426e-06      2.94539      117.609 
-0.000548702      7.70242      124.928 
1.65577e-05      4.16584      116.288 
0.000102901      1.30672     -41.7428 
2.21096e-06      3.63660      115.402 
1.04371e-05     0.152971     -78.6901 
1.27650e-05     0.570197     -144.638 
4.28371e-06      3.66372      115.201 
3.68151e-05      7.39404      124.754 
2.14437e-05     0.743673      48.2705 
3.70464e-05      1.08010      127.666 
4.97589e-05      5.51831      109.863 
4.20345e-05      5.17880      133.122 
3.15536e-05     0.473630     -10.9541 
4.13416e-06      3.74535      114.615 
4.13033e-05     0.294703      104.744 
4.07464e-06      3.73172      114.711 
2.06028e-06      6.93586      124.515 
1.40182e-05     0.579008     -143.427 
4.94430e-05      2.83924      105.945 
1.00374e-05     0.900000      90.0000 
2.02415e-06      3.70448      114.905 
-0.000375429      1.38008      89.3772 
1.72283e-05      2.42912      135.751 
2.07019e-05      3.77887      114.632 
7.84812e-06     0.138293     -77.4712 
7.73131e-06      2.95869      117.474 
5.72654e-05     0.591122     -144.293 
7.52007e-06     0.550114      78.9965 
1.67822e-05      1.05321      169.330 
3.31688e-05      7.40637      124.688 
1.67332e-05     0.142302     -71.5651 
3.79130e-06     0.915123      89.0608 
1.26918e-05      3.75162      114.823 
3.78717e-06      1.33331      72.9921 
5.63060e-06      4.17251      116.473 
3.61175e-06      2.42949      136.251 
1.88999e-05     0.702282      160.017 
1.06659e-05      2.97201      117.341 
2.00640e-05      4.18594      116.381 
9.89657e-06     0.284605      108.435 
3.96851e-05     0.567825      77.7995 
-0.000502743      1.52085      14.8586 
3.37737e-05      7.41492      124.783 
5.08350e-05      1.82483      9.46232 
8.37070e-06     0.754934      49.0283 
3.38863e-06      3.78515      114.839 
6.71484e-06      5.18907      133.243 
4.92316e-06     0.600000     -143.130 
5.01127e-06      2.53797      122.939 
3.33839e-06      2.43989      135.996 
1.69663e-06      3.73801      114.920 
5.01416e-06      2.97893      117.597 
1.56216e-05     0.612066     -143.973 
1.68372e-06      3.75794      115.031 
9.06181e-06     0.280223      105.524 
1.75877e-05     0.491350     -12.3391 
3.28912e-06      3.74436      115.128 
3.27573e-06     0.109202     -74.0546 
4.84693e-06      3.73078      115.226 
7.41289e-05     0.270416      109.440 
1.27221e-05      1.50067      1.71836 
1.58127e-05      5.17815      133.357 
-0.000325134      3.04821      126.193 
1.56470e-05      2.99223      117.464 
4.77233e-06      3.70366      115.423 
4.46081e-05      7.42724      124.717 
1.10016e-05     0.106066     -81.8699 
1.66734e-05      1.31042      74.0546 
4.71638e-06     0.945119      89.0906 
2.01860e-05      3.69012      115.523 
1.46508e-05     0.707549      158.875 
4.54869e-06     0.764853      48.1798 
1.54343e-06      4.17930      116.197 
4.78621e-05      1.82735      9.92625 
2.45486e-05      4.19276      116.107 
2.44485e-05      1.50120      2.29061 
2.32962e-05     0.506014     -11.9761 
8.18524e-05      5.97633      119.138 
4.90469e-05      5.18846      133.477 
1.46028e-05    0.0900000     -90.0000 
2.06763e-05      1.09202      127.185 
1.49047e-06      2.98590      117.852 
2.32545e-05      3.67659      115.624 
2.64153e-05      2.99917      117.719 
5.60316e-05      7.43958      124.651 
1.43853e-06      2.46155      136.481 
-0.000113511      4.73173      133.716 
1.60782e-05      1.30638      74.6872 
8.19033e-06     0.975115      89.1186 
9.59403e-06    0.0912414     -99.4623 
-6.83323e-06      2.83480      129.417 
1.60837e-05      2.56693      123.319 
2.74048e-05     0.520697     -11.6336 
7.24754e-05      1.83000      10.3889 
-2.41889e-05      4.74259      133.590 
1.15525e-05     0.713092      157.751 
6.11857e-05     0.582495      78.1113 
-3.20691e-05      2.82323      129.611 
2.66134e-06    0.0764853     -101.310 
3.77909e-05      1.48621      2.31372 
2.00203e-05      3.66307      115.726 
2.00943e-05    0.0807775     -111.801 
1.15231e-05      3.01246      117.586 
6.35422e-06     0.990114      89.1319 
3.84177e-06      2.57948      123.136 
5.07206e-06      4.19938      116.290 
3.69186e-05      7.45192      124.586 
2.52006e-05      2.58771      123.414 
1.40092e-05      1.10400      126.714 
7.32280e-06      1.30250      75.3236 
1.25093e-06      2.47245      136.721 
6.15297e-06      3.01944      117.838 
-0.000244828      2.17500      126.870 
1.17289e-05      4.20624      116.017 
3.87079e-05     0.538540     -12.8750 
3.31536e-05      2.57520      123.598 
1.76224e-05      3.02576      117.454 
2.43220e-06      5.19879      133.597 
6.72777e-05      5.98943      119.069 
0.000137689      1.53536      165.285 
2.33958e-06      1.00511      89.1449 
-0.000366895      2.01302      106.004 
6.79374e-05      5.18794      133.711 
4.04546e-05      3.64957      115.828 
3.93262e-05     0.585769      76.6755 
1.25719e-05    0.0750000     -126.870 
1.18315e-06     0.786034      48.0941 
3.44342e-06     0.718905      156.644 
6.86596e-06      1.28423      75.8014 
4.45773e-05      7.46045      124.681 
8.95890e-06     0.796131      47.2906 
2.29110e-06    0.0874643     -120.964 
3.80603e-05      1.81053      111.890 
0.000182737      1.83276      10.8501 
0.000140086      1.48689      2.89127 
-3.42618e-05      2.81169      129.806 
2.14732e-05      3.03908      117.324 
1.12241e-06      1.04807      170.942 
3.21144e-05      3.79784      115.249 
1.36947e-05      1.28063      76.4521 
-0.000216190      7.25363      122.244 
4.26403e-06      1.04581      171.754 
1.25460e-05    0.0848528     -135.000 
1.33076e-05      4.19968      115.833 
2.78753e-05      2.58353      123.875 
2.08452e-06      1.02011      89.1575 
2.11711e-06      1.11606      126.254 
4.19318e-05      7.46427      124.520 
1.21744e-05     0.806381      46.5074 
4.99875e-06     0.553173     -12.5288 
-5.53067e-05      1.14728     -48.1798 
2.67157e-05     0.724983      155.556 
2.31173e-05     0.556619     -14.0362 
-1.81546e-05      5.61098      118.415 
1.43664e-05     0.256320      110.556 
5.73981e-05      5.29959      116.202 
4.97822e-06      1.10726      125.628 
4.19495e-05      1.82446      111.714 
4.89424e-06      1.04377      172.569 
2.07179e-05      3.05242      117.195 
5.75818e-06      1.27720      77.1063 
-0.000404332      5.61814      118.549 
7.50851e-05      7.47664      124.455 
8.57404e-06    0.0960469     -141.340 
9.80580e-07      1.03511      89.1697 
-6.75087e-06     0.797402      16.3895 
8.82899e-05      3.80427      115.454 
2.22391e-05     0.816777      45.7441 
6.57929e-06      1.29522      76.6075 
-2.07289e-05      2.80018      130.002 
2.23643e-05     0.571183     -13.6713 
9.49400e-07      1.03500      90.0000 
-0.000569489      1.13614     -47.6754 
1.88459e-06      4.21318      115.744 
1.88029e-06      1.09859      124.992 
-8.39519e-05     0.793300      15.3501 
-5.63565e-06      1.38171     -32.1372 
-6.28682e-05      1.38975     -32.6609 
1.00674e-05      5.17759      133.591 
5.43569e-06      1.04193      173.387 
1.45772e-05      1.02143     -29.9536 
5.00681e-06      4.22023      115.472 
-0.000267655      2.37900      143.202 
2.23253e-05      2.59600      123.690 
8.66737e-06      2.45015      135.248 
4.26206e-05     0.108167     -146.310 
5.25283e-05     0.567825     -12.2005 
5.72036e-05      5.16673      133.706 
7.82139e-06      1.27394      77.7639 
6.32905e-05     0.600375      77.0054 
5.99028e-05      1.04193     -30.2564 
6.55826e-05      5.30623      116.348 
1.45535e-05     0.806102      45.0000 
3.88566e-05      1.83840      111.541 
6.79915e-06      1.04031      174.207 
-7.58416e-05      1.39790     -33.1785 
5.64206e-06     0.546008     -142.815 
-1.82569e-05      2.78871      130.200 
0.000140629      7.48901      124.390 
8.12461e-06      1.27085      78.4248 
9.41361e-06      4.21380      115.288 
7.77186e-05     0.816777      44.2559 
5.64222e-06      2.43961      135.498 
5.64151e-06     0.261964      113.629 
0.000229299      1.53924      164.745 
-1.17875e-05      5.86931      111.122 
1.03061e-05     0.120934     -150.255 
7.10720e-06      1.03891      175.030 
4.70203e-06      3.04559      116.944 
7.98536e-07      2.60849      123.507 
1.83938e-05      1.50270      3.43363 
-9.34299e-06      3.34907      109.084 
-8.37917e-05      1.40616     -33.6901 
1.02779e-05      2.78411      122.234 
2.32752e-06     0.686895      148.392 
1.10983e-05      2.42893      135.250 
6.70988e-06      1.26792      79.0889 
7.99804e-05     0.582495     -11.8887 
0.000138877      5.15590      133.821 
1.17437e-05     0.694874      147.339 
-6.75175e-06      3.36816      109.242 
2.15973e-05     0.114237     -156.801 
6.62428e-06      3.05897      116.816 
8.61691e-06      1.03771      175.855 
9.43741e-05      1.04957     -30.9638 
-0.000123289      2.37218      109.581 
2.32615e-05     0.534135     -141.843 
-4.42819e-06      3.36325      109.001 
-1.07739e-05      5.88331      111.069 
-7.13499e-05      2.77727      130.400 
7.54660e-05      5.31290      116.493 
4.23016e-05      2.91143      105.540 
3.99540e-05      1.85236      111.371 
-3.23277e-05      1.65218      119.358 
-2.16225e-05      3.38233      109.158 
2.15011e-06      2.07158      138.229 
1.44029e-06      3.81782      115.357 
1.18358e-05      3.83780      115.463 
7.14484e-07      3.05223      116.565 
5.38443e-05      1.81803      10.9391 
4.70016e-06      2.77143      122.400 
-2.31825e-05     0.468615     -50.1944 
7.12440e-07      1.26517      79.7559 
7.51167e-06      3.06566      116.440 
4.88877e-06      2.08160      137.921 
7.52087e-06      2.40772      135.252 
2.75973e-06      1.24780      80.3112 
8.77873e-05      4.90066      135.744 
-9.58062e-05      1.48568      178.264 
1.34370e-05     0.703082      146.310 
4.80681e-05      2.41840      135.503 
-9.73641e-05      1.41454     -34.1956 
-4.76158e-06      5.89731      111.017 
6.86267e-07      1.11091      124.548 
2.87009e-05      3.82426      115.560 
4.46572e-05      2.09276      138.196 
1.22354e-05      1.12330      124.114 
1.33948e-06      2.55441      123.503 
5.84704e-06      1.03674      176.682 
-2.33051e-05     0.789462      14.3003 
-2.00519e-06      3.40143      109.314 
-8.46804e-06      5.90596      110.829 
6.66380e-07      1.24536      80.9915 
-7.96562e-05      7.35000      126.870 
-2.11100e-05      3.39650      109.075 
4.05243e-05      7.50139      124.326 
1.30225e-06      1.22826      81.5730 
-2.55650e-05     0.459157     -51.6325 
8.13168e-06      3.07247      116.065 
1.17241e-05     0.711512      145.305 
5.57829e-06      1.22615      82.2664 
1.69535e-05     0.100623     -153.435 
2.51515e-06      2.52540      123.124 
-9.17357e-06      5.91999      110.777 
4.97379e-06     0.817328      42.7688 
-8.65232e-05      1.81525      137.344 
-3.34030e-05      1.06764      65.9558 
0.000203993      5.31961      116.637 
3.69876e-06      2.51723      122.838 
-1.22870e-06      3.41559      109.231 
1.86255e-05      1.80056      1.43210 
2.73209e-05     0.585769     -13.3245 
1.46734e-05      1.03598      177.510 
3.01355e-05      5.92399      119.421 
-9.03041e-06      3.41068      108.993 
1.50286e-05      2.92588      105.461 
1.29311e-05     0.522422     -140.826 
2.71158e-05     0.827587      43.5312 
1.06212e-05     0.618466      75.9638 
1.82373e-06      2.50913      122.550 
1.17259e-05      1.14414      124.315 
-8.21469e-05      1.42302     -34.6952 
-6.08450e-05      7.24095      122.307 
3.83244e-05      3.81074      115.657 
1.20812e-06      2.48842      122.445 
8.83950e-06      1.20934      82.8750 
-9.06121e-05      3.39918      119.619 
1.80138e-06      2.48040      122.152 
-2.30742e-05     0.450000     -53.1301 
1.19267e-06      2.47245      121.858 
5.83879e-06      3.08596      115.942 
5.95489e-07      2.46457      121.562 
1.18643e-06      2.45675      121.264 
0.000142206      7.49749      124.485 
5.91747e-07      2.44900      120.964 
-9.32741e-06      3.42976      109.148 
1.74324e-06      1.47191      2.92072 
4.77348e-05     0.720156      144.324 
1.76834e-06      2.42615      120.052 
5.87887e-07      2.41318      120.231 
5.86888e-07      2.41868      119.745 
1.16981e-06      2.40567      119.922 
5.84983e-07      2.41127      119.435 
6.36514e-06      2.39822      119.612 
-6.81352e-06      5.92872      110.590 
1.13989e-05      7.49790      119.745 
-4.88989e-05      5.20416      113.979 
1.07819e-05      2.39084      119.299 
-1.13098e-05      3.44886      109.302 
2.79569e-05      1.20757      83.5812 
1.11333e-05      3.09945      115.821 
0.000122439      2.08279      138.504 
-6.49128e-05      1.95265      133.132 
9.30473e-05      5.91093      119.492 
4.35776e-05     0.603925     -14.3814 
1.94848e-05      1.15656      123.896 
1.92417e-05     0.622274      74.6237 
1.37830e-05      2.38354      118.985 
2.49032e-05      7.48488      119.802 
-4.99916e-06      5.21124      130.798 
-4.25734e-05      7.00630      125.766 
-6.64308e-06     0.525214      178.363 
-2.25410e-05     0.441163     -54.6888 
-2.16549e-05      3.46799      109.454 
5.53196e-07      1.07016     -31.2392 
5.52302e-07      1.47122      2.33731 
-4.91877e-05     0.391152      32.4712 
-6.00110e-06      5.22106      130.923 
8.27745e-06      1.82094      11.4025 
-5.49082e-07     0.510221      178.315 
-4.62214e-05     0.510882      176.634 
2.08018e-05      1.80025     0.954841 
4.33536e-06      3.11296      115.701 
-2.80301e-05      1.08135      66.2796 
2.52699e-05      2.37630      118.668 
1.27737e-05      2.94034      105.383 
2.07979e-05      1.05737     -31.6608 
-9.57344e-06      5.23089      131.047 
1.77840e-05      3.10649      115.451 
-7.66910e-05      1.43162     -35.1887 
-7.85164e-06      3.48213      109.372 
-1.49130e-05      5.24076      131.170 
3.56408e-06      4.22670      115.656 
2.57119e-05      7.47187      119.859 
-1.48567e-05      3.48714      109.604 
-2.33730e-05     0.432666     -56.3099 
1.43945e-05      1.17738      124.095 
4.04654e-06     0.513079     -142.125 
1.63804e-05      2.36915      118.350 
1.46653e-05      2.38236      118.179 
1.67584e-05      3.12004      115.333 
-2.07970e-05      3.50127      109.522 
1.91328e-05    0.0874643     -149.036 
-2.30484e-05      5.25064      131.294 
2.50286e-06      1.19106      84.2176 
1.16956e-05     0.525000     -143.130 
1.47383e-06      2.77950      122.661 
7.75883e-06      1.20599      84.2894 
-1.64507e-05     0.495908      176.532 
2.89775e-06      4.23322      115.839 
5.78825e-06      3.60902      116.672 
2.89801e-06      1.05096      177.546 
-1.15251e-05      3.50631      109.753 
9.61895e-06      7.45886      119.916 
2.39249e-06      3.12648      115.582 
1.90932e-06      2.95481      105.306 
-4.77055e-06      1.44031     -35.6764 
-2.38248e-06     0.424529     -57.9946 
1.42930e-06      1.18983      123.690 
2.38227e-06      5.89788      119.564 
-1.42853e-06      5.26055      131.416 
4.75912e-07     0.626418      73.3008 
