! Center RA: 12 21 31.69052,  Dec: +28 13 58.50019 (2000.0)
! Established model.
! Flux (Jy) Radius (mas)  Theta (deg)  Major FWHM (mas)  Axial ratio   Phi (deg) T \
! Freq (Hz)     SpecIndex
 0.0446767      0.00000      0.00000 
 0.0281921    0.0202604      0.00000 
0.00661022    0.0286526      135.000 
0.00111535    0.0397705      0.00000 
0.00489262     0.101837     -11.4755 
 0.0224174     0.145849     -15.8239 
0.00611316    0.0720098      146.476 
0.00410236    0.0562440      135.000 
 0.0118929    0.0848966      135.000 
0.000397044    0.0828082     -14.1622 
0.000710675    0.0633577     -18.6495 
0.00298918     0.100252      126.784 
0.000338369    0.0446338     -26.9958 
0.000665031     0.126477     -18.3275 
0.000328183    0.0202604      180.000 
0.000320524    0.0286526     -45.0000 
0.000313401    0.0202604     -90.0000 
0.00121865     0.116465      121.027 
0.000436618    0.0397705      180.000 
0.000601317    0.0286526     -135.000 
0.00116206     0.107434      111.727 
0.000703113    0.0446338     -153.004 
0.00141790    0.0633577     -161.350 
0.00268683     0.126477      108.327 
0.00764803    0.0828082     -165.838 
0.00351092     0.189835     -18.4349 
0.00478955     0.170734     -20.5855 
0.00141632     0.121759      99.5784 
0.00585172     0.141777      98.2159 
0.000864468     0.107434     -158.273 
0.000532486     0.161111      97.2243 
0.000338426     0.101837      101.476 
0.000341256     0.181229      96.4188 
0.000168913    0.0896014      116.350 
0.00306282    0.0896014     -153.650 
0.00221459     0.184432      102.453 
0.00377315    0.0828082      104.162 
0.000749819     0.404436      171.464 
0.00304045     0.204262      101.227 
0.000490157    0.0720098      123.524 
0.00100584     0.427819      169.183 
0.000734482    0.0633577      108.650 
0.000348203     0.540658      92.1476 
0.000224874     0.541740      94.2100 
0.00152447    0.0998015      180.000 
0.000853914     0.101837     -168.524 
0.000320703     0.200353      90.0000 
0.00120475     0.201375      95.7743 
0.000908888    0.0802914      180.000 
0.000844110    0.0600310      180.000 
0.000656659    0.0633577      161.350 
0.000249811     0.144435     -33.7726 
0.00108627     0.188432     -31.9812 
0.000480843     0.521537      94.3734 
0.000998293     0.543603      96.3402 
0.000231430    0.0397705     -90.0000 
0.000738198    0.0446338     -116.996 
0.00187155     0.820423      88.5849 
0.000362366     0.209153      106.680 
0.000284606     0.565518      98.1624 
0.000191770    0.0562440     -135.000 
0.000187995     0.205897     -28.9938 
0.000954037    0.0802914      90.0000 
0.000441520     0.523357      133.490 
0.000272526    0.0720098     -123.524 
0.00352426     0.965599      103.161 
0.00297040     0.233573     -30.9322 
0.000253477    0.0848966     -135.000 
0.00153719     0.538237      132.005 
8.05753e-05     0.100252     -143.216 
0.00130739    0.0828082      75.8378 
7.91767e-05     0.839927      88.6178 
0.000446671     0.128090     -141.183 
0.000539360      2.93480      107.453 
0.000352491     0.820173      90.0000 
0.00119246      2.92879      107.075 
0.000866565     0.156126     -140.265 
0.000131219     0.820423      91.4151 
6.55771e-05     0.823954      119.039 
6.37474e-05     0.800169      91.4509 
0.000767268      2.72611      93.7878 
0.000782788     0.841065      118.394 
0.00123369      2.69740      103.727 
0.000408298     0.800901      92.8463 
0.000681924      2.72120      104.044 
0.000175192      2.92290      106.695 
5.99731e-05      2.88223      105.292 
0.000116445      2.87695      104.903 
0.000975651    0.0633577      71.3505 
0.000268887      2.87200      104.526 
0.000476020     0.184676     -139.449 
0.00147385      2.72484      93.3628 
0.000304937     0.802162      94.2918 
0.000104578     0.169793     -135.000 
0.000570661     0.197181      114.029 
0.000421026      2.86698      104.134 
0.000182184      2.70228      104.144 
0.000314312     0.841160      115.353 
0.000292461     0.781960      94.4029 
0.000448528     0.495261     -133.342 
0.000290681     0.950796      75.3715 
0.000685074     0.945882      103.441 
4.33611e-05     0.803932      95.7319 
0.000463347      2.84242      103.838 
0.000896191      2.86210      103.741 
0.000604806      3.73119      97.3951 
0.000269985    0.0562440      45.0000 
0.000963788     0.849697      116.542 
0.000986908      3.67346      111.397 
0.00158130      2.74432      93.3389 
0.000268699     0.212689     -138.719 
0.000246259     0.100252     -36.7841 
0.000283454     0.260826     -32.5470 
7.73878e-05      2.99276      98.4491 
0.000117561    0.0720098     -33.5245 
0.000395285      2.97272      98.5065 
0.000135836     0.970413      104.326 
0.000295056      3.75324      106.410 
0.000160306     0.509380     -135.000 
0.000101658      9.34458      112.393 
3.41653e-05     0.349107     -113.700 
0.00103956      9.33717      112.282 
0.000764134     0.323277     -111.801 
3.32693e-05     0.783776      95.8798 
0.000802221      9.51884      115.379 
0.000242094    0.0896014     -26.3505 
0.000432867      3.72864      97.0864 
0.000305288     0.950796      104.628 
9.23856e-05      3.92635      102.057 
0.00117079      1.33388      103.004 
0.000120391     0.808873      98.5360 
0.000987147      7.68459      105.084 
0.000205667     0.271820     -36.0157 
0.000160707      3.75880      106.695 
0.000620103      3.94616      101.996 
0.000225298     0.240790     -138.411 
0.000463392     0.215843      111.838 
0.000107865     0.812127      99.9497 
0.000397455     0.858942      117.752 
0.000206868      2.83782      103.456 
0.000101671     0.523357     -136.510 
0.000125625    0.0720098      56.4755 
0.000167145     0.815725      101.300 
2.55128e-05      2.94071      107.815 
0.00102855      1.94016      91.1746 
0.000475185      3.72620      96.7772 
0.000913431      1.93153      111.252 
8.78263e-05     0.551483      133.511 
0.000779168      3.22910      116.083 
0.00105843      6.75492      102.309 
0.000135375      2.67295      103.408 
0.000593501      3.66180      111.797 
4.61649e-05      2.85753      103.361 
2.28492e-05      8.85323      103.189 
0.000431976     0.269397     -138.048 
0.000545227      9.18608      116.232 
0.000375058      2.95413      107.335 
0.000274422      8.85788      103.317 
0.000251223      9.51050      115.273 
0.000125131     0.819935      102.688 
0.000284651     0.284207     -39.3213 
0.000176271      2.66849      103.001 
0.000294658      1.83068      96.2831 
0.000205497     0.868561      118.934 
5.72653e-05      2.88871      116.738 
0.000330126     0.551483     -136.489 
0.000198413     0.824622      104.062 
0.000186292      8.86239      103.440 
0.000960735      6.53497      114.208 
0.000484355      4.81092      98.3677 
7.27385e-05      9.02355      113.100 
8.74037e-05      2.94816      106.959 
0.000181743      3.72394      96.4792 
0.000400507      2.66401      102.576 
6.74556e-05     0.926189      76.2677 
0.000202035      8.88682      103.536 
0.000518382      9.01562      112.982 
0.000409253      8.07285      104.931 
0.000273814     0.107434     -21.7271 
5.17082e-05      4.75719      111.709 
5.15769e-05      8.43084      106.112 
0.000141003      3.38641      97.1282 
0.000183220      9.32951      112.167 
0.000202942     0.829578      105.369 
0.000593373      4.76472      111.935 
0.000413892      8.43648      106.244 
3.30389e-05      1.75664      82.1433 
0.000182478     0.283342     -135.000 
7.73698e-05      3.03087      106.883 
0.000164087      9.48353      115.215 
0.000137309      1.75941      81.5139 
4.13283e-05      3.38888      97.4555 
0.000310153      8.89158      103.663 
4.57157e-05      3.74557      96.7420 
0.000126726     0.580403      87.9995 
5.53295e-05      2.89789      117.096 
0.000134437      1.92118      91.7906 
0.000351514     0.835176      106.709 
0.000628710      4.80801      98.1288 
0.000175766      4.97660      104.424 
0.000155511     0.300155     -36.8699 
0.000196188      3.03660      107.235 
0.000470058      3.97007      102.210 
0.000266515     0.297458     -137.658 
0.000128745      3.72171      96.1692 
2.71807e-05      2.08480      86.1407 
6.48124e-05    0.0896014      63.6495 
7.61782e-05     0.840993      107.982 
4.92516e-05      8.61986      104.103 
0.000120825      9.34827      112.120 
0.000251531      8.44217      106.376 
0.000432574      7.30788      105.557 
4.64741e-05     0.921752      77.4459 
0.000214698      2.08620      85.6060 
4.68452e-05      8.72300      101.105 
2.43643e-05      2.84734      104.234 
0.000261375     0.463888      7.43540 
0.000201400      8.89621      103.785 
4.74234e-05     0.581411      86.0777 
2.39468e-05      1.82858      95.6521 
0.000110505      3.66938      112.091 
4.48692e-05      3.71959      95.8590 
6.55031e-05     0.561200      85.9362 
2.18853e-05     0.121759     -9.57842 
0.000145624      9.36635      112.075 
4.26285e-05      2.68824      102.904 
2.12339e-05     0.304558     -113.217 
2.11499e-05      3.98988      94.0227 
3.99929e-05      1.93986      90.5984 
2.07845e-05     0.461703      4.94151 
2.07131e-05      9.34066      112.005 
0.00103009      7.26099      89.0526 
0.000548328      6.94059      89.5044 
8.87643e-05     0.100252      36.7841 
8.57770e-05     0.100252      53.2159 
0.000103161      3.64676      93.4565 
0.000122271      6.51650      114.281 
0.000120397     0.536971     -135.000 
0.000120990     0.844290      103.727 
6.00393e-05      9.47492      115.104 
8.07498e-05      4.98169      104.650 
2.09582e-05     0.523357     -133.490 
9.98586e-05      4.78352      111.845 
4.09381e-05     0.164706     -13.9729 
2.05251e-05    0.0848966      45.0000 
-9.76173e-05      7.92315      105.372 
2.00606e-05     0.315980     -34.7468 
7.80660e-05      4.80529      97.8985 
5.83415e-05     0.184432     -12.4530 
5.82172e-05      2.65967      102.150 
1.95210e-05      1.10459      137.946 
1.92297e-05      9.35875      111.960 
1.88852e-05      4.99623      104.366 
0.00109862      4.20590      122.179 
0.000432808      4.22306      122.032 
-0.00108435      8.12019      143.413 
-0.00122743      8.63115      112.049 
-0.00148174      7.99067     -8.63612 
-0.000538743      5.89119     -114.038 
-0.00152298      10.9717      158.953 
-0.000315892      4.40816      138.858 
0.000908171      11.6521     -151.497 
-0.000963270      8.37485      162.344 
0.000836447      2.88998     -4.76611 
0.000915352      9.35203      43.3549 
-0.000389712      4.59296      4.24435 
0.000287613      8.78234      82.1475 
0.000656170      9.16210     -4.00605 
-0.000525705      9.60901      75.9073 
-0.000690838      5.89947     -114.218 
-0.000919181      4.42344      139.031 
-0.00110105      8.13646      143.498 
-0.000524139      7.44522      124.712 
-0.000187852      9.47341      58.9958 
-0.000186199      11.2496     -139.542 
-9.43102e-05      4.90925     -19.7616 
0.000522725      13.4445     -47.1713 
-0.000666812      9.46338      59.0970 
0.000253821      12.3650     -34.2542 
-8.95968e-05      4.92762     -19.6849 
0.000591891      7.44117      133.476 
0.000877917      5.18916      79.3417 
-0.000256706      4.84771      83.8420 
-0.000181192      11.2480     -139.399 
-0.000479030      7.36989      129.824 
0.000579719      11.9972      32.1254 
-8.71026e-05      12.4909     -49.0900 
0.000486354      13.5341      44.9394 
-0.000784561      10.1556     -100.666 
-0.000364672      11.2628     -139.464 
-8.44055e-05      4.53579      53.7879 
-0.000310972      9.22930     -99.6040 
-0.000622233      7.49464     -55.5494 
0.000159660      6.61566     -86.0130 
-0.000237330      2.92413      93.1333 
0.000231577      11.6614     -151.413 
0.000238637      10.1576     -103.901 
0.000231797      12.8831      45.1888 
-0.000459671      8.22647      123.997 
0.000608288      11.9737      122.311 
-0.000382259      8.39344      162.385 
0.000379700      8.00729      140.064 
-0.000156789      4.83276      83.3484 
-0.000454422      11.4321      138.334 
-0.000309750      6.54415     -6.67030 
0.000566351      10.7930     -37.6961 
0.000452209      7.52411     -88.0225 
0.000304554      5.34642     -73.2615 
-0.000152009      12.4175      45.6537 
0.000445754      7.42724      133.362 
7.74997e-05      10.3549      141.825 
-7.72754e-05      10.4188      150.187 
0.000366708      12.0137      32.0759 
-0.000222035      4.75154      81.5270 
7.69120e-05      4.27397      82.7377 
-0.000148185      4.32677      166.091 
-0.000295190      9.71835     -33.3293 
0.000149030      9.33813      43.2645 
-0.000220778      3.11303      20.2958 
-0.000148678      7.43412      124.588 
-7.58382e-05      5.90781     -114.397 
-7.57846e-05      12.4183      45.7834 
-0.000149234      10.6681     -24.5947 
-7.55048e-05      10.8205     -57.8375 
-0.000146920      9.60428      76.0202 
-0.000218027      5.90348     -113.349 
7.43921e-05      9.18231     -3.99721 
0.000146426      4.27648      82.4784 
0.000145514      10.3264      141.843 
-7.41601e-05      2.02847     -99.6470 
-0.000256241      6.47999     -6.38269 
-0.000144323      6.68479     -52.1679 
-7.38697e-05      9.73529     -33.2638 
0.000145252      13.5198      45.0000 
7.39599e-05      7.50461     -88.0174 
0.000144833      10.3808     -45.6238 
-0.000144330      7.73273      96.6816 
7.29948e-05      7.05447      65.9051 
-0.000142944      9.50122      58.9540 
0.000143222      3.86433     -47.3057 
7.22953e-05      8.67985      158.933 
-7.17872e-05      12.4320      45.7190 
-7.08992e-05      8.58322     -19.3236 
-7.08718e-05      6.56427     -6.64976 
0.000603701      7.37390     -10.9463 
0.000224821      7.35474     -10.9752 
-0.000513093      8.62243     -10.4239 
0.000270304      10.0576      35.7772 
-0.000379211      11.1318      28.3133 
-0.000589764      9.86081      10.9893 
0.000197994      7.33101     -10.8499 
0.000196783      10.4321     -19.7201 
0.000301153      9.06651      67.5654 
-0.000128982      11.9152     -129.757 
0.000178435      8.99886     -14.8080 
0.000123541      2.27289     -83.9355 
-0.000126594      8.27816      151.576 
-0.000235334      9.18131      179.124 
0.000293164      13.7575     -42.6437 
0.000277236      14.1284     -134.484 
0.000177490      10.4415     -59.7495 
-0.000122001      9.70297      28.8386 
-0.000119942      10.0515      9.27527 
-6.15134e-05      2.31900     -113.919 
-0.000511103      4.68010     -143.863 
-0.000176521      9.46301     -160.493 
-0.000261203      8.26035      151.510 
0.000351896      9.34265     -173.363 
-0.000225539      8.81845      141.908 
0.000113431      7.31112     -10.8798 
-0.000113454      2.29298     -113.654 
0.000107363      10.4131     -19.7577 
0.000473541      13.7712     -42.7057 
-0.000301439      9.72073      28.7810 
0.000312381      9.38925     -95.8669 
-0.000109588      9.68638      9.26822 
5.63193e-05      10.0537      35.9359 
-5.61478e-05      5.59736     -168.250 
-5.54915e-05      11.9252     -129.966 
-0.000159143      11.0321      143.257 
-0.000305252      9.48211     -160.534 
0.000342514      10.2395     -56.3111 
-0.000100660      11.1592      28.3556 
-0.000284668      8.25070      151.633 
0.000103773      4.01121      32.5871 
-0.000240263      5.01246     -142.947 
-0.000150405      2.28493     -113.189 
0.000218249      9.73267      35.1274 
0.000637435      10.7041     -125.265 
-0.000103618      6.50231     -6.53369 
-0.000193233      5.61720     -168.292 
-0.000103702      8.79001      141.931 
0.000210023      2.27083     -84.4439 
-0.000433661      11.1496      28.2639 
-0.000100550      10.7489     -24.5165 
5.14286e-05      10.4144     -59.7917 
0.000228624      9.07426      67.4472 
0.000377502      13.7431     -42.6988 
-9.86659e-05      9.20113      179.005 
5.05376e-05      10.2924     -50.8379 
9.20914e-05      7.28815     -10.7523 
-0.000184661      9.26627     -67.8091 
-0.000507177      10.5438     -144.653 
9.37653e-05      9.04308     -95.5857 
0.000186638      7.56595     -11.2787 
4.96117e-05      10.0476     -174.403 
-0.000191260      8.77407      141.849 
-4.97037e-05      8.53601     -12.3086 
-0.000139056      11.0598      143.234 
-0.000493717      9.66639      9.28756 
-0.000979509      10.5200     -27.6361 
-0.000136809      7.47602      166.859 
-9.38275e-05      5.76694      84.4296 
-0.000213773      8.55581     -12.2797 
-0.000183162      9.69757      39.8958 
0.000172919      14.1282     -134.600 
9.18881e-05      11.8404     -133.562 
4.75093e-05      8.95524     -14.7477 
-0.000135584      11.0857      144.989 
0.000170654      10.0658     -174.529 
0.000524570      11.8278     -149.967 
-8.68499e-05      8.62612     -10.5563 
0.000947205      9.36909     -95.8795 
8.90465e-05      10.1805     -58.4938 
-4.61702e-05      12.2808      40.7729 
-0.000172972      9.86662     -161.197 
-8.86953e-05      9.22139      179.007 
4.55689e-05      9.62622     -174.395 
-0.000171930      10.2527     -37.6289 
-0.000129832      9.50122     -160.575 
4.49859e-05      3.99479      32.7378 
-4.45055e-05      8.75873      141.770 
0.000124682      10.4884     -61.5299 
-4.38337e-05      6.52244     -6.51344 
-0.000159276      12.2956      40.7136 
0.000208027      10.5608      104.589 
-8.56167e-05      5.76895      84.2293 
-4.34318e-05      8.73028      141.792 
-4.34223e-05      11.2133     -144.069 
-0.000193594      8.56014     -12.4122 
-0.000231070      12.9972     -134.439 
-0.000329514      10.0241     -68.0935 
0.000123614      10.5605     -151.492 
0.000113744      9.54603      171.447 
-0.000199530      8.71437      141.710 
-4.21669e-05      6.29984     -4.54998 
-0.000259613      11.1301      145.026 
8.30244e-05      10.0632     -19.2618 
-0.000194423      9.68458      39.8039 
4.17161e-05      10.4339     -123.507 
-0.000155661      7.99560      149.650 
-0.000228517      11.2297     -144.129 
-8.01393e-05      2.27731     -112.737 
-0.000293861      11.0761      143.296 
0.000120323      10.2287     -56.4020 
-0.00101265      14.1985      134.771 
4.13102e-05      5.78654     -32.8678 
-0.000154595      9.71099      28.6762 
0.000108061      4.96431      146.504 
0.000356600      9.52674      171.430 
-0.000115829      4.69647     -144.009 
0.000288702      10.7119      31.0174 
0.000320779      7.46949     -173.389 
-0.000187569      12.2978      40.5804 
4.07674e-05      13.2532     -48.8544 
-4.04944e-05      9.24165      179.009 
0.000179285      9.92818      92.3088 
0.000167682      7.58582     -11.2488 
0.000896764      10.5557      104.483 
0.000477907      10.0568     -19.1569 
-0.000279011      9.16682     -100.943 
-3.97968e-05      8.37997      127.143 
-0.000151517      9.51962     -160.614 
-0.000114037      9.27394     -67.6932 
0.000411605      13.2398     -48.9204 
0.000115611      7.06381      147.838 
-3.87595e-05      5.77102      84.0292 
-0.000109317      8.37610      127.337 
0.000109563      11.2071      153.389 
-7.47267e-05      9.84744     -161.159 
0.000270043      10.5687     -151.641 
-3.74739e-05      9.26115      179.011 
-3.74487e-05      8.95664      143.720 
-3.72464e-05      5.02804     -143.081 
3.72251e-05      10.2465     -58.3260 
3.71161e-05      2.98045      106.363 
-3.71670e-05      11.0979      132.517 
-3.68213e-05      5.75161      84.0090 
6.94676e-05      9.08176      67.3335 
0.000609697      10.8424      19.5034 
-0.000167542      8.06265     -118.282 
3.65791e-05      10.4508     -123.446 
3.64422e-05      9.00815     -92.4157 
-0.000191325      9.70016      39.7273 
-0.000326808      8.69906      141.630 
-6.97035e-05      11.9212      56.8431 
0.000199512      7.04730      147.753 
6.94398e-05      2.98622      106.736 
0.000357921      13.8995     -42.6678 
-9.95729e-05      6.45837     -6.22330 
3.55834e-05      10.2564     -56.3739 
-0.000127551      2.25082     -112.461 
0.000100960      8.78487     -94.3109 
0.000190275      9.02068     -137.967 
0.000199985      11.8109     -149.920 
-6.83650e-05      8.64888     -10.6597 
-3.51992e-05      5.60242      88.3652 
-0.000101375      10.5226     -144.435 
-3.51339e-05      9.82898     -161.122 
0.000123894      10.5159     -61.4855 
-3.49939e-05      10.2436     -178.434 
3.49412e-05      6.84483     -125.964 
-0.000101482      9.53873     -160.654 
-0.000307639      9.69322      28.7336 
0.000222297      12.3811      145.797 
-0.000130048      10.2527     -127.629 
-3.44904e-05      8.90595     -104.039 
-3.44994e-05      9.28141      179.013 
-0.000131366      8.27251      124.960 
3.43297e-05      10.2840     -58.1945 
0.000127618      13.4605      47.3473 
0.000148903      2.87612     -143.776 
-3.40236e-05      9.28165     -67.5775 
9.85166e-05      10.6493     -135.228 
-0.000209226      11.1668      28.2165 
-0.000664806      12.9698     -142.140 
3.37115e-05      10.3814      103.365 
9.77536e-05      9.03518     -138.050 
-3.33991e-05      6.27812     -4.38715 
-6.59678e-05      5.02424     -142.769 
-6.36429e-05      5.75368      83.8158 
-3.31661e-05      9.80326     -161.196 
3.31450e-05      5.77557     -32.6990 
0.000188067      10.0744     -56.9089 
3.29406e-05      11.1850      156.276 
-9.61498e-05      12.3132      40.5191 
-0.000125672      11.2462     -144.190 
-6.35516e-05      6.08751      82.8268 
-3.23822e-05      7.49964      166.742 
-5.66693e-05      11.2727      134.210 
3.22464e-05      8.68251     -91.4510 
0.000200396      10.5508     -151.589 
-9.09694e-05      11.9124     -126.465 
-0.000166498      8.94032      143.643 
0.000120064      11.8313      120.250 
3.17458e-05      11.5031     -136.763 
-0.000165733      6.41820     -55.6671 
-3.16929e-05      8.26854      151.700 
-0.000289783      11.1363      143.397 
-3.14869e-05      9.55714     -160.693 
3.14661e-05      14.1419     -134.656 
3.14621e-05      2.96754      106.845 
3.13887e-05      10.4451     -123.600 
3.12459e-05      7.18682      59.9360 
0.000117140      10.3954     -100.531 
-9.03666e-05      10.5067     -144.373 
-3.10705e-05      9.32118      179.017 
8.87979e-05      7.54062      138.869 
-0.000226602      13.5789     -133.928 
3.09365e-05      9.08959      67.2157 
-3.08752e-05      9.78408     -161.158 
-8.91780e-05      11.2440      134.208 
-3.07683e-05      11.1310      44.1970 
-0.000136735      10.2408     -127.542 
-8.92580e-05      12.3109      40.6521 
5.91960e-05      11.2343      153.343 
-0.000339542      13.6542      43.1606 
0.000420064      2.82532      97.7234 
-5.97692e-05      9.76562     -161.121 
5.91593e-05      8.66955      166.796 
3.01015e-05      7.08482      145.233 
-3.00019e-05      10.1939      11.2016 
-8.81810e-05      4.57930      18.5953 
-2.98179e-05      2.69718      23.1484 
2.97987e-05      9.74094      146.895 
-8.35166e-05      12.1424      52.0912 
-0.000142756      5.78802     -87.0274 
-2.97366e-05      5.60303      88.1581 
-8.67014e-05      11.2620     -144.248 
2.95567e-05      10.4371     -45.3088 
8.73010e-05      9.05136     -171.869 
0.000138883      9.05214      45.8934 
-5.69238e-05      7.51936      166.778 
2.94209e-05      10.0859     -174.540 
0.000167455      13.9128     -42.7269 
5.71838e-05      11.5173     -136.830 
-8.43802e-05      5.75590      83.6153 
0.000268089      13.4462      47.2910 
-5.48410e-05      8.26774      125.148 
0.000113343      11.9230      45.8823 
-0.000204883      9.74645     -161.082 
-8.06950e-05      5.03979     -142.903 
-5.71042e-05      10.3060     -67.7655 
2.88590e-05      7.01936      147.805 
-9.78127e-05      7.97877      149.579 
2.86888e-05      9.83376     -82.9916 
5.67726e-05      10.0377     -19.1948 
5.60751e-05      7.48732     -173.561 
-2.86864e-05      9.34143      179.020 
-5.60222e-05      8.07028     -118.090 
0.000126765      9.01925     -137.785 
-2.86420e-05      9.84092      11.0118 
0.000283672      12.3650      145.746 
-0.000136982      10.5508      14.3802 
-2.84552e-05      9.57626     -160.733 
5.53004e-05      7.17670      60.0760 
-2.83842e-05      10.4694     -144.095 
-5.50040e-05      6.43823     -6.24285 
8.07291e-05      10.0633     -57.0055 
2.81591e-05      9.70108     -121.855 
-8.09335e-05      12.3280      40.4602 
-0.000110178      4.59780      18.5177 
2.81393e-05      12.7056      136.785 
-0.000132135      2.72600      22.4282 
-5.45608e-05      11.2863      134.281 
2.78938e-05      10.2456     -56.4647 
5.51807e-05      13.8617     -43.9472 
7.74923e-05      9.78554      146.929 
2.78119e-05      9.00735     -92.2918 
0.000105721      9.03130     -171.851 
5.47222e-05      13.7299     -42.6389 
0.000180533      9.90877      92.4306 
-0.000320036      10.3258      163.110 
-5.47962e-05      10.2835     -69.6265 
-5.45369e-05      8.68319      141.547 
5.39004e-05      10.0126     -19.1221 
-2.75134e-05      11.9101      56.9247 
-0.000182239      10.4530     -144.030 
-5.35658e-05      13.0107     -134.626 
-2.73028e-05      7.10849      126.419 
-2.73052e-05      8.67256     -10.7664 
-0.000127760      7.72678      159.548 
7.75269e-05      10.4509     -45.2327 
0.000682948      10.0310     -19.0855 
0.000103790      12.7204      136.848 
-7.88547e-05      12.3263      40.5907 
-0.000130476      11.2784     -144.308 
-0.000342583      5.78906     -86.8346 
5.29374e-05      10.7174      146.726 
2.68973e-05      10.3792     -100.662 
2.68833e-05      9.00425     -137.699 
2.68871e-05      10.6924     -125.177 
0.000149491      11.9371      45.8125 
0.000105713      13.6592     -138.561 
0.000202318      11.5321     -136.898 
-0.000229434      10.3018     -69.6643 
-0.000198331      9.67611      28.7892 
9.95773e-05      11.4739     -54.1509 
0.000124462      13.3462     -129.893 
5.01857e-05      8.60902      34.2081 
9.96337e-05      9.79249     -151.184 
-0.000127545      6.72036     -4.43796 
-0.000195086      2.50770     -119.626 
7.62283e-05      11.1867      47.8982 
9.97126e-05      10.4559     -123.689 
-0.000197092      11.3986     -61.9504 
0.000294871      13.8758     -43.8913 
-0.000126739      4.61701      18.4379 
0.000220940      10.5591     -151.738 
7.64026e-05      11.5667     -33.0035 
-2.61991e-05      6.08501      83.0161 
-0.000175759      11.1799      143.439 
-9.87949e-05      9.26473     -104.244 
0.000123287      10.3828     -100.767 
-0.000479884      13.6394      43.2188 
4.99614e-05      7.48653     -153.504 
2.59818e-05      4.98122      146.633 
-2.59686e-05      9.36169      179.022 
-0.000100406      6.01628      30.5728 
7.52725e-05      8.62579      34.1324 
-4.92420e-05      9.64713      9.30626 
0.000455724      13.6726     -138.498 
-2.57112e-05      8.57561     -12.2509 
-2.56910e-05      6.20054     -155.001 
-0.000144927      12.6494     -133.207 
7.45111e-05      9.06869      168.294 
-0.000214869      10.5312      14.4076 
7.43364e-05      10.7770     -37.7620 
-2.50374e-05      9.67210      39.7151 
-0.000143077      13.5925     -133.987 
0.000262406      13.4608     -40.6006 
-4.86598e-05      11.3989      137.916 
2.49715e-05      12.5701      37.8906 
-0.000214035      12.6050      53.7113 
0.000114596      9.81615     -82.8598 
-0.000120537      8.92401      143.566 
-2.49071e-05      9.42019      83.5373 
-0.000189391      9.86580      63.9007 
-4.93905e-05      11.2949     -144.368 
-4.87084e-05      12.3434      40.3992 
9.65841e-05      10.3549     -171.448 
4.82200e-05      11.5016     -54.1260 
7.27678e-05      10.5361      104.510 
-0.000188925      10.5294     -27.7338 
-2.45758e-05      8.75107     -130.643 
7.15771e-05      12.5541      37.9474 
7.13661e-05      7.57686      56.5208 
0.000212948      13.4594      47.2299 
0.000119076      12.7352      136.910 
-2.44390e-05      9.73318     -41.5840 
2.44528e-05      10.4899      70.0446 
-0.000118073      10.9367      28.6277 
4.80170e-05      12.7914     -136.902 
-7.19942e-05      10.0156      82.0806 
2.43306e-05      9.02845     -171.978 
-4.83453e-05      11.3221     -144.345 
-0.000327502      10.3089     -69.5587 
-0.000141112      6.76160     -4.58305 
4.71002e-05      8.49902     -138.243 
7.07592e-05      9.80609     -73.0446 
-4.74308e-05      12.3411      40.5318 
-2.40493e-05      6.42965     -55.5180 
-0.000140877      11.1962      143.500 
0.000140203      2.40505     -93.8105 
-0.000209794      11.6720     -39.8541 
-4.76652e-05      4.63624      18.3587 
0.000139714      11.5469     -136.967 
9.32225e-05      9.78175     -73.1206 
-0.000209667      11.3386     -144.405 
9.29394e-05      13.3337     -129.829 
7.00174e-05      13.4739     -40.6660 
-6.98899e-05      9.97016      160.185 
-4.69224e-05      9.86695      66.0822 
-4.67904e-05      12.6951      40.5917 
-2.36859e-05      11.5009      128.505 
-4.68735e-05      10.4372     -143.967 
4.68325e-05      10.2344     -56.5593 
-4.63804e-05      5.73806      83.3917 
-4.67168e-05      11.6672     -59.9621 
4.67338e-05      11.8181     -150.049 
0.000184641      13.3229      45.7279 
2.36139e-05      9.81806     -79.0783 
-2.35265e-05      9.72729     -161.044 
-6.95426e-05      10.5458     -14.2736 
6.93131e-05      10.4968      69.9406 
-2.35155e-05      7.73388      159.408 
-2.35184e-05      6.60605     -6.77790 
-2.34056e-05      11.2239      143.476 
6.91636e-05      2.58511     -146.688 
-4.63327e-05      10.9545      28.5769 
-2.33600e-05      10.0350      82.0959 
-2.33085e-05      7.09230      14.7038 
4.63467e-05      9.34770     -95.7728 
-4.63257e-05      11.5283      128.520 
-6.90063e-05      9.17055     -101.063 
-2.32897e-05      8.89731     -103.257 
-4.61123e-05      4.67400      18.2052 
2.32687e-05      11.7245     -53.4631 
4.60907e-05      10.3520     -171.555 
0.000137706      10.7045     -150.322 
2.30635e-05      9.84092     -78.9882 
-4.59167e-05      12.0633     -44.9320 
-6.87463e-05      13.9586     -135.059 
-4.58721e-05      10.2431     -178.548 
2.30330e-05      8.74810      164.757 
2.29584e-05      6.62170      144.343 
-2.29334e-05      10.3031      161.318 
4.57842e-05      9.83721     -79.0998 
2.29734e-05      10.4672     -123.781 
-4.57441e-05      10.3092      13.1178 
2.29499e-05      11.9507      45.7454 
-6.85766e-05      11.2402      143.538 
4.45059e-05      2.82277      97.3309 
2.28804e-05      12.3373      145.768 
-2.29047e-05      10.5408     -14.1668 
-4.56452e-05      7.57400      157.159 
2.28778e-05      12.2841      138.497 
-2.28146e-05      11.5410      128.599 
-2.27601e-05      8.89269     -103.130 
2.27233e-05      11.7692      59.6878 
2.26515e-05      9.54792      103.077 
-0.000107532      12.7159      142.734 
-7.75374e-05      12.7004      142.681 
9.87248e-05      9.99285     -166.574 
-7.39204e-05      10.4418      156.283 
4.99134e-05      11.2852      151.526 
9.44490e-05      10.1803      25.6093 
4.89349e-05      11.7682      150.473 
-7.30724e-05      7.98905      149.453 
-7.27113e-05      10.3087      161.566 
4.79966e-05      11.5135     -54.0443 
-0.000161354      9.40228      83.4053 
-7.02057e-05      7.42578     -17.5561 
6.99389e-05      11.2250      153.207 
6.90063e-05      10.6206     -135.229 
2.38946e-05      10.0759     -158.579 
-6.86139e-05      10.2323     -127.293 
-0.000111513      10.3280      161.602 
-8.96922e-05      11.9841     -126.927 
-2.33525e-05      12.6725      142.695 
-8.88174e-05      10.4233      156.238 
-8.87644e-05      10.5232      45.9245 
4.46023e-05      11.7782      150.387 
2.27331e-05      8.78549      160.864 
2.27243e-05      10.3238      23.8821 
4.40394e-05      11.5249     -53.9658 
-2.23770e-05      11.7822     -59.3861 
2.22545e-05      10.0577     -158.538 
-4.40777e-05      7.78866     -15.6444 
-2.20997e-05      11.8995      57.0034 
-2.20541e-05      5.79022     -86.6344 
2.18811e-05      11.1981      153.250 
2.16624e-05      10.7456     -37.8918 
2.16049e-05      10.4830      70.1486 
-2.15688e-05      6.03374      30.4749 
-2.14593e-05      14.3127     -44.4329 
-2.14359e-05      9.34035     -64.6413 
! Tentative model.
! Flux (Jy) Radius (mas)  Theta (deg)  Major FWHM (mas)  Axial ratio   Phi (deg) T \
! Freq (Hz)     SpecIndex
-2.32014e-05      12.7163      142.734 
