! Center RA: 12 21 31.69052,  Dec: +28 13 58.50019 (2000.0)
! Established model.
! Flux (Jy) Radius (mas)  Theta (deg)  Major FWHM (mas)  Axial ratio   Phi (deg) T \
! Freq (Hz)     SpecIndex
 0.0685113     0.220795     -84.7351 
 0.0163637     0.243395     -80.5958 
0.00589496     0.141777     -98.2159 
0.00813434     0.121759     -99.5784 
 0.0306254     0.266484     -76.9812 
 0.0102625     0.126477     -108.327 
 0.0168678     0.107434     -111.727 
0.000551308     0.223431     -79.7468 
0.00154800     0.101837     -101.476 
0.00749210    0.0896014     -116.350 
0.00506074     0.262662     -81.2912 
0.00566964    0.0720098     -123.524 
0.00758212     0.282706     -81.9129 
0.00583152    0.0633577     -108.650 
0.00142230    0.0562440     -135.000 
0.00226299     0.286260     -77.8948 
0.00160893    0.0446338     -116.996 
0.000255413     0.100252      126.784 
0.00318039     0.128090      128.817 
0.00202372     0.144435      123.773 
0.00250852    0.0828082     -104.162 
0.000230451     0.291183     -73.9938 
0.000451538     0.297155     -70.3754 
0.000221342     0.280627     -85.8598 
0.000644514     0.304558     -66.7829 
0.00282227     0.161670      119.778 
0.000425700     0.279894     -90.0000 
0.000609854     0.313099     -63.3735 
0.000403156     0.280627     -94.1402 
0.000578501     0.322315     -60.2717 
0.00111484     0.302778     -97.5477 
0.00128865     0.178866      116.673 
0.000726440     0.315980     -55.2532 
0.000177075     0.223834      116.479 
0.00294059     0.327950     -52.3435 
0.000841401     0.306099     -101.310 
0.000172928     0.241454      114.414 
0.000336541     0.268467      116.565 
0.000794127     0.286050      114.817 
0.000315447     0.100252      143.216 
0.000159972     0.325253     -100.636 
0.00186610     0.329594     -104.100 
0.00116901     0.948461      108.449 
0.000587223     0.313099      116.626 
0.000290311    0.0802914     -90.0000 
0.000411263     0.340220     -49.7414 
0.000144234    0.0998015      180.000 
0.00316223     0.100252     -36.7841 
0.000214173    0.0848966     -45.0000 
0.00288714     0.304887      121.617 
0.000798991     0.300155     -53.1301 
0.000193331     0.134233      116.565 
0.00258894     0.312731     -50.1592 
0.000897241     0.116465      121.027 
0.00175951     0.632861      108.456 
0.00129401     0.113549     -45.0000 
0.000325463     0.639305      110.115 
0.00363671     0.651397      107.913 
0.00181125     0.332828      122.759 
0.000411069     0.116465     -31.0271 
0.000270313     0.113549      135.000 
0.00139504     0.929974      108.830 
0.000523562     0.325575     -47.5220 
0.000128208     0.116465      148.973 
0.000376269     0.334882     -107.339 
0.000248530     0.141777     -171.784 
0.000124446     0.322315      119.728 
0.000123673     0.134233     -26.5651 
0.00112194     0.339586     -45.0000 
0.000908842     0.354273     -106.362 
0.000118523     0.164706     -166.027 
0.00292209     0.942245      107.281 
0.000115137     0.145849     -15.8239 
0.000114722     0.170734     -159.414 
0.00237655      1.22711      109.022 
0.000535677     0.189835     -161.565 
0.000211153     0.164706     -13.9729 
0.000688433     0.360505     -109.453 
0.000100232     0.197181     -155.971 
0.000196208     0.353651     -47.2356 
0.000958037     0.353651     -42.7644 
0.000516211     0.350038      120.964 
0.000881934     0.215843     -158.162 
0.000274263     0.181229     -6.41879 
9.52062e-05     0.373757     -105.487 
9.21470e-05     0.388092     -101.940 
0.000265804     0.553458      130.601 
0.000419474     0.645453      106.202 
0.000339425     0.404436     -98.5360 
8.76434e-05     0.349107     -113.700 
0.000396648     0.170734      110.586 
8.47492e-05     0.367749     -112.431 
0.000397680     0.551483      133.511 
0.000583735     0.357396     -116.565 
7.90413e-05     0.241454     -155.586 
0.000517251     0.424483     -98.1301 
0.00119126      1.86307      119.590 
0.00109249      1.23993      107.832 
0.000994991     0.664933      105.714 
0.000959454     0.367178     -45.0000 
0.000295709      1.30136      136.262 
0.000559273     0.234065     -159.938 
0.000146270     0.200353      0.00000 
0.000965127      1.87316      120.129 
0.000326020     0.566349      137.900 
0.00226366      1.30226      137.475 
0.000193297     0.164706      103.973 
0.000202738     0.564587      67.0814 
0.00128966     0.443806     -97.7739 
0.000127757     0.569504      71.5651 
0.000466419     0.227911     -164.728 
0.000118451     0.220795      5.26495 
6.21199e-05     0.563176      62.5472 
0.000175330     0.366905     -119.396 
0.000179858     0.577108      75.9276 
6.10385e-05     0.377263      122.078 
0.000224766     0.572799      60.7486 
0.000572253     0.923634      107.640 
-0.00168517      1.32819      37.0317 
5.71246e-05     0.568413      140.679 
0.000222652     0.596781      76.4006 
0.000538921     0.253192     -161.511 
0.000108097     0.584228      141.938 
0.00249269      1.54459     -138.683 
0.00173236     0.463888     -97.4354 
0.000256222     0.612198      78.6901 
0.000102405     0.243395      9.40424 
0.000102839     0.180093      90.0000 
0.000198864     0.588377      144.709 
0.000197158     0.582967      59.0109 
0.000775739     0.381773     -42.8494 
0.000564569      1.28794      136.889 
0.000289263     0.247514     -165.964 
0.000187482     0.181229      83.5812 
0.000225103      1.25851      107.560 
-0.00180036      3.84077      28.9687 
9.47766e-05     0.647814      81.1378 
0.000134485     0.350038     -120.964 
0.000131387     0.631341      79.0373 
0.000948808      1.88071      119.286 
0.000179792     0.593248      147.395 
0.00188620      1.81836     -129.642 
8.80001e-05     0.266484      13.0188 
0.000213501     0.667840      81.4056 
0.000133123     0.600426      60.0064 
0.00241549      3.92382      113.427 
0.000476718     0.936427      106.097 
0.000299775      3.67392      121.869 
0.000244814     0.609552     -48.9932 
0.00130808     0.184432      77.5470 
0.000125328     0.610413      148.420 
0.000336401     0.610413      58.4202 
4.24352e-05      2.14685      115.374 
0.00152393      2.92879      17.0747 
0.000335795      2.15665      114.657 
0.000829808     0.913801     -10.0734 
0.000252045     0.332828     -122.759 
0.000465202      2.13825      114.883 
0.000966806      3.66752      122.305 
0.000441739     0.618057      150.945 
0.000536208      3.07668      26.2276 
4.00338e-05     0.720656      1.61102 
0.000218359      1.27218      106.447 
0.000319312     0.260038     -157.431 
7.47226e-05     0.651243      79.3763 
-0.000497584      1.31609      36.3276 
0.000216580      3.08353      2.60826 
0.000681917     0.963658     -131.622 
3.64222e-05     0.616492      76.8433 
0.000136841     0.740950      3.07683 
0.00263640      3.08569      26.5651 
0.000602031     0.670704      107.381 
7.06899e-05     0.687137      81.6487 
-0.000442249      2.50090      120.250 
0.000206568      3.06329      2.62551 
6.88009e-05     0.690371      79.9848 
0.000371769     0.315980     -124.747 
0.000194612     0.710331      80.2690 
6.65428e-05      3.04305      2.64298 
-0.000679650      2.25809      18.6035 
3.32111e-05      3.04402      3.00982 
0.000544591     0.625863      153.435 
0.000193262      3.02453      3.02922 
-0.00251089      2.49076      119.848 
9.54784e-05     0.268467     -153.435 
0.00131839      1.29091      106.202 
-0.00189202      2.76102      42.3564 
0.000155086      1.53178     -139.231 
0.000263000      3.00430      3.04964 
0.00154587     0.910591     -8.86462 
0.000328174      2.17605     -126.036 
0.000209512      2.92290      16.6950 
-0.000920580      3.63576      21.6301 
3.06102e-05      2.96360      2.71389 
0.000221416     0.286050     -155.183 
9.05879e-05      2.94336      2.73256 
0.000146101     0.730308      80.5377 
0.000147964      1.55987     -139.174 
0.000284191     0.189835      71.5651 
0.000147164      2.92313      2.75150 
8.86322e-05      1.48416     -127.316 
0.000441995      3.43480      117.013 
5.87082e-05      2.27898     -132.505 
-0.000715635      3.85785      28.8284 
0.000849382     0.850886     -150.406 
-0.000584937      3.48606     -3.29476 
0.000266324     0.621263      56.8282 
0.000222134      2.90364      2.76998 
0.000305535      2.58020      7.11675 
0.000793414      2.29272     -132.878 
0.00103415      1.52438     -128.083 
8.46477e-05     0.300155     -126.870 
0.000662313      1.54718     -139.721 
0.000380769      2.51974      47.5828 
-0.00102517      2.25171      18.1149 
0.000324920      2.20392     -126.136 
0.000397270      1.22562      56.3099 
5.53872e-05      3.16392      2.89566 
3.98690e-05     0.753070      79.2611 
0.000661427     0.295127     -151.610 
-0.000275342      2.83253      38.4062 
2.69403e-05     0.278118     -149.699 
0.000222929      3.18415      2.87724 
0.000129880     0.772985      79.5409 
0.000236143      1.88802      118.460 
0.000549721      2.84275      2.42057 
0.000155320      2.58123      102.525 
0.000791705      2.59956      7.06347 
5.13189e-05      2.98407      3.07034 
0.00160888      2.53345      47.2446 
-0.000567069      3.50554     -3.27644 
0.000730270      1.28865      138.139 
0.00142374      2.56219      102.620 
9.75279e-05      3.02567      3.41235 
0.000615409     0.795867      78.4146 
0.000208506      1.27784      107.286 
0.00107797      1.26515      55.2920 
0.00248678      3.06758      26.7343 
0.000754640      2.38436      93.3739 
-7.11173e-05      1.34049      37.7231 
-0.000869212      3.60390      2.54189 
0.000483877     0.676788      108.957 
0.000301343     0.635505      155.886 
-0.00169144      2.73239      42.3287 
-0.000227178      2.41594      19.3354 
-4.68642e-05      2.74741      42.0442 
0.000162227      3.09493      5.56545 
-0.000548569      1.34537      41.9706 
-0.00169301      2.61116      95.2764 
0.00113620      3.66401      102.286 
-0.000525148      2.86099      38.4721 
0.000111390      3.20364      2.85972 
0.000774739      1.56212     -140.184 
4.23547e-05      1.78984     -129.556 
-0.000395504      3.60486      2.86360 
0.000101909     0.977233     -132.510 
-0.000495971      2.44180      19.6266 
0.000819850      3.94173      113.315 
0.000120170      2.19247     -125.725 
0.000670027      3.20273      2.51113 
0.000545109      2.82251      2.43794 
0.000694666      2.30655     -133.247 
-0.00148027      2.99799      108.671 
0.000274514     0.868561     -151.066 
-0.00124507      3.87562      28.6839 
-0.00119086      1.34416      43.1903 
7.82169e-05     0.384685      117.915 
0.000211742      3.45286      116.860 
0.000420035      3.22736      22.5881 
3.98762e-05      1.87880      117.937 
3.96114e-05     0.954815      109.560 
-0.000665465      3.48901      25.8321 
0.000213860      1.88802     -151.540 
0.000704508     0.446997     -100.348 
-0.00117459      3.73135      15.2268 
0.000176699      1.89672      117.650 
0.000129334      3.93375      113.044 
0.000347767      2.61967      7.00898 
1.89227e-05     0.967701      108.070 
0.000222056     0.973929      109.161 
0.000383397      2.40384      93.3465 
0.000271460      1.54922     -140.759 
0.000458520      2.46746      109.895 
0.000447219     0.962396     -133.326 
8.94962e-05     0.304887     -148.383 
1.83801e-05      2.40274      92.8642 
3.62474e-05     0.966811      155.563 
0.000400322      3.07869      33.0742 
-1.81411e-05      3.61763      21.7440 
-0.00122647      4.10523      116.312 
0.000231829     0.895107     -150.577 
-0.000304366      2.46089      19.4681 
-3.53782e-05      3.90096      28.1425 
0.000157308      3.20935      22.7219 
0.000100281      2.16420     -125.602 
0.000100519     0.984607      156.033 
-0.00124331      1.66430      125.216 
0.000558344      1.31037      105.954 
0.000377837      2.31996     -133.598 
3.42412e-05     0.300155     -143.130 
1.72151e-05     0.375627      115.183 
0.000845483      3.19860      23.1968 
-0.00103631      2.48111      119.457 
1.68591e-05     0.819935      77.3119 
0.00141836      1.29292      55.0924 
0.000174619      4.14742      121.392 
-0.00146286      1.44795      122.578 
0.000173071      4.31160      121.920 
-0.000536874      2.24549      17.6236 
0.00125820      2.57707      102.102 
4.88904e-05      1.88740      117.105 
0.000187295      2.80227      2.45556 
0.000308039      1.58939      111.405 
6.21262e-05      3.04641      3.77089 
8.72801e-05      2.82321      30.1907 
0.000235287      1.90479      116.838 
0.000151977     0.815725     -168.700 
0.000116519      1.55236     -128.188 
4.67688e-05     0.288454     -146.351 
0.000263308      1.87880     -152.063 
3.09639e-05      1.76180     -129.487 
-0.000370721      2.48582      19.7422 
9.14972e-05      1.29046      160.996 
7.53622e-05     0.907689     -7.60090 
3.08052e-05     0.297458     -137.658 
0.000555322      2.34806     -133.627 
6.09052e-05      2.75242      8.78179 
-0.00101961      3.25598      105.314 
5.77428e-05      3.67255      122.992 
0.000178608      1.59241     -115.273 
9.49065e-05     0.980766      110.279 
4.23237e-05      1.56076     -149.169 
-9.89758e-05      2.88946      38.5366 
1.50149e-05      3.47028      116.715 
-0.000647226      3.48023      25.5319 
0.000571628     0.891319     -9.05789 
4.42924e-05     0.227911      164.728 
0.000229645      3.47943      117.013 
0.000193385     0.283342     -135.000 
0.000181313      2.77473      9.11843 
0.000195822      2.56153      47.2081 
0.000739408      2.78197      2.05589 
0.000190354      4.16409      121.252 
0.000110193      3.06663      3.74600 
0.000545871      3.64421      102.353 
9.85415e-05      4.30131      121.699 
0.000245738      1.30893      161.274 
2.81087e-05      1.73386     -129.380 
0.00106918      1.60827      111.141 
0.000690950      2.54781      47.5424 
0.000106101     0.912809     -151.202 
0.000432851      3.22297      2.49535 
0.000373687     0.839713     -167.616 
0.000505342     0.215843      158.162 
0.000132932     0.209153      73.3204 
9.46097e-05      3.10632      33.1718 
1.37049e-05      1.32987      105.714 
0.000489804      1.31587      106.771 
1.35503e-05     0.646553      158.199 
0.000293905      3.17999      23.3406 
0.000215348     0.776764      78.1256 
-2.60963e-05      3.46583     -3.31401 
0.000247886     0.695981      108.415 
9.06862e-05      4.31856      121.558 
5.25914e-05      1.37909     -119.536 
0.000365723      3.96034      113.199 
0.000114104      1.91392      116.023 
1.32691e-05     0.284207     -140.679 
2.61012e-05      1.59287     -128.900 
3.93193e-05      3.52248      10.8049 
-0.000410247      2.01657      97.3974 
1.31477e-05      2.84009      29.9927 
-1.31550e-05      3.62491      22.0305 
1.31331e-05      2.18070     -125.292 
0.000344401      3.09568      32.8696 
-1.29927e-05      2.91688      38.5977 
5.10171e-05      2.79589      30.0539 
0.000498831      2.36209     -133.983 
0.000160799      2.77170      8.72022 
1.29623e-05      3.06537      3.36811 
2.51569e-05      3.66669      123.430 
0.000455343      3.54608      11.0531 
-1.28330e-05      2.92956      38.9073 
0.000274571      1.39675     -119.126 
-0.000316269      2.50490      19.5857 
-0.000310474      3.60613      22.1512 
-0.000161776      2.94233      39.2144 
0.000228406      2.38559      93.8416 
-9.36064e-05      1.04875      34.9181 
8.47144e-05      4.18142      121.108 
0.000201753     0.427819     -100.817 
1.25085e-05      1.62089     -128.987 
0.000731927      3.90034      22.6182 
0.000142933      2.75132      30.1035 
0.000103884     0.215843      68.1616 
8.29701e-05      4.30800      121.328 
8.88128e-05      1.64939     -129.091 
0.000417152      3.62516      102.419 
0.000391881      3.15169      23.9653 
0.000217126      3.49750      116.862 
0.000209250      1.93214      115.759 
-0.000326649     0.842640     -67.7059 
-0.000239009      2.23966      17.1479 
0.000333054      2.79473      9.05260 
0.000194115     0.947759     -134.166 
0.000118295      2.47443      110.336 
-7.92680e-05      2.51608      53.4035 
0.000100299      4.19878      120.966 
-0.000110643      1.46443      122.167 
0.000128228     0.284207     -129.321 
-0.000307991      3.89340      28.5408 
0.000253148      2.70611      30.1627 
5.42404e-05      4.29750      121.098 
0.000254238      1.40417      169.345 
8.49006e-05      1.57468     -139.639 
-0.000241918      1.10196     -15.8061 
6.48880e-05      3.86022      106.557 
-0.000189429      2.03426      96.7790 
0.000210009      3.97038      112.819 
9.86126e-05     0.987971      111.381 
0.000167413      1.41383     -118.742 
-0.000176642      2.49984      53.1267 
-0.000260119      4.08708      116.438 
-0.000300312      2.71745      42.6164 
-9.35931e-05      2.50994     -5.02539 
0.000175583      2.34809     -134.314 
0.000114264      1.29649      107.030 
5.18082e-05     0.223834      63.5208 
-2.09156e-05      1.03728      34.0005 
-0.000167135      2.33971      0.00000 
-9.28465e-05      2.01415      96.8470 
2.11168e-05      1.86939     -152.612 
-0.000133406      2.53081      19.8641 
1.05512e-05      1.32813      161.555 
7.17783e-05      2.32971      11.8963 
4.16487e-05      4.21552      120.829 
9.16965e-05     0.702644      109.983 
-0.000122261      3.26139      105.657 
0.000142210      2.57290      101.661 
6.08366e-05      3.85450      106.269 
-0.000101153      3.61382      22.4487 
-9.03792e-05      2.35997      0.00000 
0.000110857      3.14121      24.4406 
3.02813e-05      1.78866     -153.435 
1.02390e-05      4.28745      120.874 
1.01756e-05      4.25967      120.780 
-6.01512e-05      3.42944      110.132 
3.01702e-05      4.23293      120.689 
2.00832e-05      3.10382      26.3978 
1.00775e-05      2.90224      29.7467 
-1.00574e-05      3.42732     -3.67806 
-1.99029e-05      1.08423     -37.5202 
2.98124e-05      3.60537      102.489 
2.97629e-05      3.24239      2.12208 
2.97569e-05      1.40070      170.129 
1.98509e-05      4.24972      120.554 
-9.90372e-06      3.46067      6.29903 
-9.91710e-06      3.08448     -2.97030 
0.00158628      4.98916     -98.0667 
0.000917271      4.96985     -98.0983 
0.00203063      4.37006     -38.4954 
0.000386608      5.67125      135.429 
-0.00117729      3.91654      145.823 
0.00126921      5.68549      135.283 
-0.00118370      9.99337      132.569 
-0.00152775      4.42659      32.8280 
0.00135797      10.1681     -103.190 
-0.00124446      12.0546     -56.9163 
-0.00145781      1.85335      43.6876 
-0.000957772      4.16433      143.795 
0.00142096      5.88236     -17.8201 
-0.000228507      3.71213      41.5008 
0.00120286      12.2807     -127.522 
0.00139991      8.79245     -26.9149 
0.000677539      13.2753     -138.481 
-0.000592163      3.72676      41.3020 
0.000605137      10.1266      141.819 
-0.000482753      5.98113      9.43042 
0.000205228      6.19452      44.4798 
-0.000571794      3.41165     -113.859 
-0.000847243      8.65113     -15.4177 
-0.000566562      9.25997      89.6286 
0.000567584      8.72034     -123.399 
-0.000289416      11.1014     -44.7809 
0.000198060      7.77282      26.7605 
-0.000553900      5.48799     -79.7134 
0.000466553      4.83318      175.726 
-0.000959316      7.40648     -42.0433 
0.000370440      12.1889      53.6754 
0.000377975      6.41048     -149.437 
0.000720691      6.22265      44.4772 
-0.000539928      3.92753      145.587 
0.00110841      9.90417      52.7125 
-0.000738364      6.23910     -6.44293 
-0.000187416      7.39292     -41.9267 
-0.000359460      5.97784      9.23885 
0.000281555      10.1878     -103.164 
0.000362779      4.92096      34.4001 
-0.000358474      9.95814      30.2729 
0.000182736      7.80240      156.591 
-0.000266078      6.48407     -1.94317 
0.000182433      10.4353     -14.9946 
0.000435774      7.53622     -97.0118 
-0.000263546      4.58203      146.929 
0.000349977      4.36644     -38.8613 
0.000175466      10.0986      141.835 
-0.000174029      10.2772     -153.036 
0.000314748      7.06530      6.50080 
-0.000346077      4.13452     -10.8694 
-0.000259601      10.0066      132.651 
-0.000174444      10.0219      178.854 
0.000513279      8.91379     -35.6891 
-0.000174870      10.2864     -152.936 
0.000257258      10.1258      171.708 
0.000259426      4.68663     -173.879 
0.000308166      9.37677      65.0202 
8.86093e-05      10.1145      141.906 
8.83876e-05      7.04591      6.51876 
0.000257008      10.4210     -15.1310 
-0.000256542      4.64427      10.9250 
-0.000273694      9.81005     -42.4394 
-8.74329e-05      10.0017      178.852 
-8.71633e-05      4.17633      143.571 
-0.000171902      2.74260     -129.382 
8.71352e-05      5.54126      70.3848 
0.000172116      6.37385     -103.424 
0.000254086      6.72463      49.5846 
0.000171010      6.40058     -149.587 
-0.000254752      8.92333     -94.1134 
0.000169153      7.82031      156.648 
0.000529463      7.04824      6.68240 
8.48666e-05      10.8812      35.1192 
-8.45341e-05      6.37931      50.4697 
-0.000409091      7.85342     -103.398 
-8.43904e-05      11.1157     -44.8550 
0.000166417      5.18985      44.8418 
-0.000166481      4.67085      123.825 
0.000166256      5.90094     -17.7622 
-8.39539e-05      9.87488     -98.7372 
-8.38744e-05      6.59446      77.5674 
8.38511e-05      4.89280      34.3384 
-8.35236e-05      1.86751      43.2742 
-8.33761e-05      13.6131      41.7243 
8.31261e-05      7.97902      136.421 
-8.28378e-05      8.65653     -15.5470 
8.28978e-05      11.3614      29.9941 
-8.23550e-05      9.26012      89.5032 
0.000233739      8.61034     -40.5715 
0.000866649      8.62305     -40.6700 
0.000695563      5.51609      70.5150 
-0.000393119      7.31325     -131.227 
0.000289230      6.10846      37.2824 
-0.00104057      7.83444     -103.431 
0.000511893      6.91776     -41.0152 
0.000178810      5.49700      70.4446 
0.000629062      4.62011      58.9900 
-0.000179709      3.43877     -111.493 
-0.000751552      5.06586     -30.6144 
8.96370e-05      9.44469     -53.7865 
-0.000334144      6.25924     -6.42211 
-0.000171855      7.98358     -74.1545 
-0.000250283      8.29036      82.5160 
-8.73135e-05      7.29802     -131.332 
0.000172186      10.4295     -14.4362 
-0.000652887      8.03365     -25.3515 
-8.65303e-05      11.7492      149.855 
0.000792694      9.45667     -53.6875 
-0.000309737      7.90260     -144.577 
0.000377829      5.10077      59.6174 
0.000570582      6.03984      104.770 
-8.42415e-05      3.44624     -111.806 
0.000162162      8.72882     -37.5536 
-0.000379612      11.7390      149.941 
-0.000340702      3.26438      53.9678 
0.000154407      6.12030      37.4277 
0.000313132      10.4346     -14.5439 
-8.04275e-05      9.49337      61.9765 
0.000502464      8.69423      158.688 
-8.01417e-05      3.42813     -111.927 
-0.000723868      7.98913     -74.0147 
0.000222995      7.67847      163.974 
0.000476739      5.49025      70.6438 
-7.75971e-05      7.30040     -131.112 
-0.000479220      9.50255      61.8727 
-7.70776e-05      3.43547     -112.229 
0.000346491      10.1651      171.741 
-7.55380e-05      6.25700     -6.23775 
-0.000147263      8.31045      82.5342 
-0.000394927      4.11751      17.8175 
0.000723828      9.52955     -141.134 
-0.000143543      3.41672     -112.358 
0.000207809      12.2163     -127.284 
7.31766e-05      10.4446     -14.7551 
-0.000273933      10.2298      175.629 
-7.31624e-05      6.49069     -166.822 
0.000142064      8.74489     -37.4727 
0.000135609      9.94883     -49.8093 
0.000577634      8.36905      74.9021 
7.24443e-05      7.64164      160.425 
-0.000208160      5.41794     -156.275 
0.000193337      7.70887     -51.1085 
0.000671565      6.97767      164.372 
0.000205240      7.86510     -59.2631 
0.000139667      4.46204     -9.54469 
7.11607e-05      10.4496     -14.8585 
-7.12770e-05      9.96235     -72.4740 
0.000137642      9.83462      68.0265 
0.000423820      2.62779     -79.0366 
0.000194794      7.62256      160.373 
0.000440255      8.10021      100.672 
0.000316714      7.69311     -51.0138 
6.88612e-05      10.4548     -14.9659 
-0.000195120      6.46726     -166.951 
6.86379e-05      10.1679      171.632 
0.000250324      11.8545     -39.2483 
-0.000625887      9.98167     -72.5090 
0.000193997      10.4147     -14.1163 
-0.000248080      10.4845     -68.2785 
6.75142e-05      5.93877     -18.2541 
-0.000236513      8.31311      82.3958 
0.000307442      10.4993      158.077 
-0.000345770      4.39322      33.1092 
0.000476726      9.05741      155.471 
0.000235258      9.35679      70.1307 
6.60608e-05      3.82452      167.927 
-0.000357967      12.2723     -55.2206 
-0.000126598      5.11252      131.990 
-0.000391476      8.59057     -77.9038 
-6.51756e-05      9.04046     0.632525 
-6.48141e-05      11.1547      49.7996 
0.000589769      5.93245     -18.0683 
-0.000235991      13.8010     -42.5916 
-0.000165948      11.7289      150.026 
-0.000466847      5.43649     -156.361 
6.35820e-05      8.76039     -37.3950 
-6.32277e-05      10.1050      120.576 
0.000264265      9.86030      67.9597 
0.000439647      8.12012      100.645 
-6.28191e-05      3.42448     -112.671 
6.26905e-05      10.4601     -15.0731 
-0.000174083      4.76894      25.0610 
-0.000121893      3.16993      169.829 
-6.18212e-05      4.57640      146.591 
6.15257e-05      4.60971      59.2058 
-0.000679058      10.1149      120.671 
-6.11797e-05      10.2283      175.738 
-0.000468481      10.6485      68.9761 
6.10082e-05      8.76422     -37.2094 
-6.10606e-05      5.65243     -36.2203 
-0.000119616      9.02020     0.633946 
-0.000287978      7.20043      173.940 
6.08219e-05      7.88187     -59.3356 
0.000224276      1.78036     -91.2800 
0.000167276      4.45885     -9.29746 
0.000223580      5.37345     -85.9480 
-0.000118554      9.93689      30.7463 
0.000227577      8.27725     -10.4410 
-0.000398304      5.93785      9.30162 
-0.000218343      10.3636      32.7086 
-0.000333530      7.99403     -28.8723 
0.000172160      7.74402      33.1942 
0.000320860      6.99719      164.417 
5.96599e-05      7.00587      85.0845 
0.000315490      3.82881      167.631 
-5.93023e-05      2.62439     -32.2450 
0.000113354      9.10547      47.9394 
-0.00195280      13.7873     -42.5296 
-5.89200e-05      11.1417      49.8792 
0.000444058      10.2298      94.3710 
-0.000267039      8.23191     -30.6771 
-0.000962570      5.88056      55.3913 
0.000484628      4.43323      165.903 
-0.000268352      9.51212      61.7651 
-0.000265496      3.14658      170.113 
0.000356046      6.41806     -149.678 
-5.76956e-05      6.44294     -1.78199 
0.000408183      9.44036     -53.6147 
5.73796e-05      13.2477     -138.488 
-0.000157362      6.25508     -108.261 
0.000106492      7.69795      164.015 
-0.000210278      10.5260     -122.268 
-0.000146807      10.6022      59.1273 
-0.00125100      9.95367      30.6889 
5.69416e-05      10.3951     -14.1436 
-5.70627e-05      7.31511     -131.011 
0.000266748      8.92125     -35.9696 
0.000161996      6.76122      18.2721 
-0.000316828      9.02045     0.762628 
0.000109969      8.29783      114.342 
5.57220e-05      10.1458      171.725 
-0.000208532      10.0745     -66.2321 
-5.56836e-05      6.12936     -107.667 
-0.000353797      8.00142     -175.843 
-0.000108618      6.86342     -103.995 
-0.000212336      7.52847     -21.1810 
-5.55236e-05      6.42284     -1.60675 
-5.52552e-05      7.19832      174.100 
-0.000105887      11.1572      49.9463 
-0.000155417      10.5848      59.0711 
-5.49951e-05      8.67633      145.614 
0.000648475      13.2623     -138.544 
0.00105371      8.36399      75.0312 
5.47181e-05      10.4652     -15.1762 
0.000104327      7.00416      85.2496 
-0.000416067      5.02132      112.484 
-0.000455376      6.15388     -107.785 
0.000104754      5.75601     -134.863 
-5.36978e-05      8.06064     -25.4200 
5.36147e-05      6.90305     -41.1215 
0.000104590      7.43604     -52.7589 
-0.000103115      10.5033     -68.3194 
0.000339801      6.35350     -120.035 
0.000104760      10.6731      27.8154 
0.000145679      6.78611      18.3829 
0.000148817      10.3901     -14.0352 
5.29471e-05      7.75513      33.3195 
5.27313e-05      5.09093      59.8068 
-5.25279e-05      10.1266      12.6614 
-9.95536e-05      2.63087     -31.6364 
5.27809e-05      5.99662     -126.184 
-0.000578219      7.21773      174.116 
-0.000245050      10.3004     -78.1236 
0.000128870      8.72047      158.612 
0.000239139      10.3795     -38.3480 
-5.21913e-05      6.44234     -1.60189 
0.000102427      8.13558      100.480 
-0.000102232      7.68045      126.422 
-0.000188146      8.68778      145.504 
0.000178686      9.97690     -49.7988 
9.87055e-05      6.05378      104.544 
0.000231250      8.28095     -10.5788 
-0.000374994      7.93437      41.5264 
-9.90448e-05      8.08697     -25.4903 
5.09917e-05      9.11905      47.8449 
0.000188447      8.30590      114.465 
-5.09306e-05      12.2557     -55.1666 
9.89784e-05      10.5773     -132.165 
-0.000193314      8.56777      54.7913 
9.93106e-05      10.6636      27.7191 
-5.04949e-05      10.5744      59.1652 
0.000340219      8.68589      117.568 
5.05680e-05      10.4444     -127.375 
-0.000186387      8.33264      23.1803 
9.52651e-05      7.77144      33.2405 
-0.000267291      6.84449     -104.035 
-0.000258323      4.66789      11.1130 
0.000170688      5.98468     -126.028 
-0.000265045      7.46949      173.389 
4.98507e-05      9.04901      155.588 
-4.96045e-05      7.05370     -118.817 
-0.000304981      9.52931      61.8206 
0.000138153      7.42380     -52.8834 
0.000343845      12.1779     -137.930 
0.000187657      8.58099      33.6887 
-0.000184308      10.1931      15.1279 
-0.000468692      8.11366     -25.5531 
-0.000226175      10.0908      9.93023 
-0.000139187      7.74402      68.8058 
0.000178966      5.74219     -135.000 
0.000136173      7.55838      17.7154 
-9.58233e-05      7.86864     -103.225 
-9.53411e-05      10.8958      32.7871 
0.000143499      8.93705     -35.8962 
8.55468e-05      9.36344      70.0185 
4.89219e-05      5.47114      70.5735 
-4.89718e-05      7.97630     -28.9426 
-0.000396264      13.3670     -136.153 
9.66056e-05      8.72212      103.528 
0.000480553      7.76915      105.685 
0.000399367      9.56733      50.8538 
-0.000535147      7.54736     -21.1254 
0.000133413      8.67688      117.454 
-0.000174928      5.11411      131.669 
-0.000305372      12.2441     -55.2444 
0.000247769      9.03898      155.418 
-0.000416667      9.91970     -63.7974 
-0.00102398      9.00094     0.764281 
-4.82211e-05      10.1456      12.6373 
0.000136399      6.76443     -73.3361 
-0.000179199      7.34893     -76.3029 
-4.77669e-05      9.46920      24.4549 
0.000326653      4.72836     -173.686 
0.000597555      10.2283      94.2620 
-4.74507e-05      4.77756      25.2811 
0.000304580      10.6464      27.7679 
0.000161792      9.77018      2.57958 
9.05272e-05      6.40983     -95.5491 
-9.00579e-05      3.02933      172.026 
-0.000133138      2.77666     -128.273 
-0.000175371      7.06732     -23.5165 
-0.000662986      8.69558     -15.4754 
0.000299616      8.71740      103.399 
-0.000331513      9.90115     -33.8828 
-0.000132031      8.24226     -30.7983 
0.000282471      10.5637     -132.083 
0.000134677      6.46058     -179.288 
0.000311126      7.70355      163.871 
0.000207883      14.4674      135.055 
-8.69459e-05      10.5197     -122.420 
4.57473e-05      10.4129     -127.507 
-0.000171120      3.04940      172.079 
4.54147e-05      8.94894     -36.0012 
-0.000688555      12.7480     -50.6660 
8.75301e-05      10.4456     -15.2053 
-0.000166395      7.88836     -103.192 
4.50262e-05      7.68038     -51.1312 
0.000208054      7.09502     -146.265 
7.94497e-05      9.04711      155.306 
0.000695241      5.92620     -17.8820 
8.80669e-05      6.19433      44.7350 
0.000167818      8.96534     -35.9251 
-0.000160807      7.98121     -175.832 
-8.28740e-05      10.0153     -93.2041 
-0.000427411      8.57946      54.6808 
0.000311272      8.49978      16.2622 
0.000205711      5.97279     -125.871 
-4.39868e-05      9.47447      148.288 
-8.65089e-05      10.1878      15.0179 
-4.32049e-05      7.66843      126.300 
0.000233482      4.88758      34.6684 
-4.31555e-05      4.41021      32.9654 
-8.49444e-05      9.96079      30.5292 
-0.000121937      9.05321     -133.744 
-0.000699945      10.0142     -93.0927 
-8.48343e-05      7.04577     -119.041 
4.28702e-05      13.8597      137.631 
-4.28163e-05      10.6426      164.186 
0.000388944      6.37040     -119.947 
0.000231571      10.6370      27.6714 
-4.26396e-05      7.87313     -103.363 
-4.26542e-05      10.3203     -78.1467 
-4.24851e-05      11.1446      50.0230 
4.24297e-05      6.48084     -179.290 
8.33951e-05      13.8460      137.693 
8.13354e-05      11.7081     -48.8797 
-8.12825e-05      10.3466      32.7692 
-0.000277146      10.6412      69.0779 
4.22042e-05      8.32366      114.409 
-0.000277531      10.3640     -81.1201 
-0.000221914      5.00329      112.569 
4.20780e-05      8.62304      178.404 
4.19633e-05      8.55331      33.6552 
-0.000536803      12.0087      144.694 
-0.000229319      10.1253      120.769 
-8.25197e-05      10.2491     -125.148 
-0.000200110      4.81507      48.0320 
0.000122282      6.40786     -149.835 
8.13937e-05      9.85272      68.0689 
-0.000121670      10.6403      109.662 
0.000119413      9.02733      4.44802 
-0.000187907      11.0797      43.0268 
-4.11937e-05      7.75137      68.6662 
4.11831e-05      10.3931     -127.732 
0.000149449      6.20821      44.6082 
0.000154282      10.3762     -38.5051 
-8.11480e-05      12.7636     -50.7236 
0.000383028      6.46085     -179.115 
-7.88438e-05      10.2126      74.9018 
0.000149326      9.42405     -53.5416 
-0.000148817      10.1742      15.1565 
-4.05901e-05      10.3394     -78.1690 
-0.000340612      7.99453     -73.8803 
0.000119362      13.8329      137.753 
-0.000398586      6.68168      63.8954 
-7.80943e-05      7.98271     -175.687 
0.000221956      8.33205      114.536 
0.000185229      8.53708      33.7278 
-0.000305130      10.2374     -125.055 
-4.00011e-05      10.6122      59.0369 
0.000200051      12.1929     -137.993 
-3.96643e-05      8.35127      23.1256 
-0.000116098      10.1793      15.2625 
-7.67395e-05      10.3592     -78.1919 
7.72179e-05      4.43821      165.649 
-0.000104452      7.09330     -23.6037 
-0.000213670      3.71049      41.9424 
-0.000407299      5.88579      55.6657 
-3.90768e-05      7.05526     -119.179 
-7.61325e-05      4.10932     -76.7733 
-3.92412e-05      10.1612      12.5049 
-0.000177972      7.48732      173.561 
-3.89115e-05      8.70387      145.577 
7.64168e-05      8.02240     -5.86791 
0.000353552      8.73638      103.369 
-3.87372e-05      9.51976      61.9280 
7.54768e-05      10.4261     -15.2345 
-0.000114544      13.3524     -136.093 
-0.000326547      10.6212      109.698 
-0.000221098      12.0383     -57.2064 
0.000109371      7.79331      33.4850 
7.65642e-05      13.8193      137.815 
-3.83315e-05      6.85863     -110.126 
3.83467e-05      8.15551      100.454 
-3.83860e-05      3.02659      172.406 
0.000145807      9.55502      50.9446 
-7.43163e-05      8.34333      22.9976 
-7.51181e-05      11.3295      151.536 
-0.000112970      12.7760     -50.6559 
-7.50209e-05      7.92251     -102.983 
-3.81624e-05      12.2326     -55.3224 
7.40330e-05      9.87151      68.1129 
0.000180891      7.75037      105.724 
3.82359e-05      8.98176     -35.8493 
3.80925e-05      7.27242      27.3397 
0.000227920      9.39513      65.0724 
0.000159520      6.42538     -149.926 
-0.000180461      6.84943     -104.199 
0.000486579      6.30168     -103.020 
-3.76522e-05      5.94116      9.49444 
-3.76343e-05      7.68417      126.214 
7.38207e-05      10.3807     -127.644 
-0.000236620      10.0003     -72.5426 
0.000144367      8.13929      100.620 
-0.000423564      12.2166     -55.2703 
7.44120e-05      13.8057      137.877 
-0.000276060      10.0819      178.861 
0.000203715      13.2775     -138.602 
0.000235059      9.54227     -141.039 
0.000108701      4.68650      63.1067 
-0.000202717      3.04667      172.457 
0.000232883      6.00108     -125.914 
-0.000364659      8.14068     -25.6202 
-0.000441709      4.80003      47.8703 
7.22780e-05      12.3711      129.687 
-3.68204e-05      10.1802      12.4812 
-0.000277083      13.3665     -136.030 
-0.000103459      10.0917      62.1145 
0.000142194      8.99320     -35.9500 
-0.000271401      10.3610     -81.2267 
-0.000431350      10.0355     -93.1977 
-7.20645e-05      9.06732     -133.659 
6.97397e-05      8.02036     -5.72393 
-3.64804e-05      5.45437     -156.443 
-3.65054e-05      7.80408      69.2892 
7.20845e-05      13.7926      137.937 
-7.18544e-05      9.34444     -143.793 
7.18140e-05      9.43935      84.7730 
7.15603e-05      4.41931      165.586 
-6.90453e-05      10.6340      69.1799 
-0.000174119      12.0200      144.618 
7.19282e-05      9.04678      4.43844 
-3.62201e-05      7.91716      145.183 
-0.000262034      9.99462      132.404 
0.000236498      11.8954     -43.9802 
0.000322967      6.44059     -179.112 
0.000533165      13.7645      137.945 
-3.60319e-05      10.3790     -78.2148 
-0.000210338      10.2534     -124.993 
-0.000203448      11.3202      151.622 
-3.58431e-05      10.6537      70.1369 
-7.05687e-05      7.00542      42.7992 
-3.58293e-05      10.5948      58.9806 
-7.03839e-05      8.92558     -165.466 
0.000104707      10.6190      27.7221 
-6.72620e-05      10.8788      32.8449 
0.000103640      8.14953     -150.603 
3.53794e-05      7.14835     -66.5890 
-3.54609e-05      7.92832      145.068 
-0.000194911      13.4635      131.267 
0.000132104      7.12208     -146.221 
0.000331914      10.0061      4.12848 
3.51388e-05      7.06762      6.66399 
-0.000104486      10.6728      70.1738 
-3.51402e-05      7.76222      68.8579 
0.000659202      14.0910     -136.610 
0.000320526      6.38016     -120.099 
-9.89715e-05      7.42006     -42.1595 
0.000159956      10.4314     -15.3419 
-3.48624e-05      10.0681      9.83581 
-0.000263374      10.4140     -78.3646 
-0.000100305      9.47596     -12.8059 
-6.83341e-05      5.70838      27.9967 
-3.48081e-05      7.93774     -102.808 
0.000101877      10.2866      55.1367 
-0.000541639      12.0273     -57.2875 
-3.46789e-05      9.88496     -33.9458 
3.46701e-05      4.69570      62.8862 
-0.000102408      10.1598      15.2926 
3.45894e-05      5.23259      44.3783 
0.000628710      13.7510      138.008 
-0.000279311      10.5684     -129.624 
0.000406465      10.7992     -109.809 
-0.000256540      7.94494      145.151 
-6.73083e-05      10.0859     -28.5462 
-0.000130698      7.56556     -21.0722 
-0.000159251      9.20464     -88.1313 
-6.55631e-05      7.23788      174.133 
0.000353336      7.15612     -66.4456 
0.000189071      9.41917      84.7618 
-0.000130246      8.96949      58.4016 
-3.41793e-05      9.32810     -143.719 
-0.000130411      5.71791      28.1760 
6.64636e-05      5.23603      42.8338 
-0.000286040      8.95029     -165.373 
-0.000312435      11.5357     -28.4772 
3.41607e-05      8.19462      100.403 
0.000128647      9.03409     -8.27144 
0.000257327      10.5486     -132.157 
0.000517142      5.23236      44.6921 
-6.70442e-05      10.2828      74.3136 
0.000162998      7.76370      105.541 
9.27154e-05      8.15921      100.594 
-9.79019e-05      10.6053      58.8868 
-0.000195353      8.02023      179.716 
0.000529257      8.35878      75.1653 
-0.000130200      10.7099      40.5303 
-3.37855e-05      9.98097      132.319 
-6.72396e-05      10.3142     -124.894 
-0.000193156      10.2154      12.3211 
-9.69038e-05      9.91077     -63.9025 
-0.000228580      10.6662      70.2724 
-9.44160e-05      7.96805      139.074 
-3.35009e-05      10.5135     -122.573 
-6.65639e-05      7.34732     -130.585 
-3.35056e-05      9.16555      1.99870 
-6.57160e-05      6.86835     -104.159 
0.000280894      8.17839      100.569 
9.44504e-05      4.98898      37.8334 
-0.000160214      10.6281      109.801 
0.000189806      7.80450      33.6091 
9.86875e-05      10.6285      27.8188 
-3.32811e-05      9.08132     -133.751 
0.000115933      4.69667      62.3459 
6.42857e-05      9.00900     -35.8772 
-3.32059e-05      10.3580     -124.856 
-0.000259413      3.85351     -41.6372 
-0.000118189      4.99214      112.865 
-8.95985e-05      7.95677     -102.777 
-3.30968e-05      12.1463      47.5363 
0.000126244      6.22245      44.7411 
0.000153462      7.68976      163.684 
-0.000371342      10.1547      15.1864 
-6.44167e-05      8.59539      54.7560 
3.29281e-05      8.52024      33.8034 
8.67727e-05      7.13045     -66.5267 
-6.55711e-05      10.3308     -124.829 
-0.000217490      8.52105      89.0564 
-3.28754e-05      5.10440     -139.131 
-6.51951e-05      6.68655      122.167 
-3.26464e-05      3.92635     -77.9427 
3.26357e-05      9.04643      155.021 
-6.42343e-05      11.9458      140.365 
3.26814e-05      9.40837     -53.4710 
0.000247502      2.38809     -126.477 
-0.000250417      13.3519     -135.970 
0.000259509      2.27975     -166.815 
-6.43314e-05      10.0040     -155.177 
9.21963e-05      10.5351     -132.075 
6.46707e-05      10.8061     -109.910 
-6.42061e-05      10.1037     -28.4913 
0.000183166      8.54793      33.8365 
-0.000183713      9.34011     -143.619 
-0.000120784      7.90577      41.5139 
3.23993e-05      9.97779      155.235 
-3.23619e-05      7.82304      69.3417 
-0.000156244      10.3746     -124.792 
-0.000303559      10.0816      178.976 
-0.000334217      10.2258     -124.962 
-6.33202e-05      6.19825      59.1314 
6.29264e-05      10.2911      55.2914 
-0.000181753      10.3131      74.1313 
9.24695e-05      11.9100     -43.9125 
3.19138e-05      10.5501     -132.002 
-9.14024e-05      7.46719      173.543 
0.000214652      10.6105      27.8699 
-6.15881e-05      10.0823     -66.1306 
6.27401e-05      9.05468      154.909 
-3.16902e-05      7.76349      94.4348 
-3.16158e-05      9.55674      61.7708 
0.000148405      9.95939      155.186 
0.000212072      8.73172      103.240 
3.15244e-05      9.39210     -53.3974 
-9.20734e-05      7.91921      41.6236 
-0.000152970      11.3380      151.671 
0.000239134      8.18765     -83.8286 
-0.000121657      10.2468      177.876 
6.20268e-05      3.00614      62.2388 
6.00291e-05      4.87154      34.7990 
3.13288e-05      10.0218      23.6476 
6.17705e-05      8.13188     -150.533 
3.12878e-05      9.57077      51.0210 
0.000254393      8.68409      36.9461 
0.000242670      10.0256      4.12045 
-0.000152275      10.3468     -124.768 
-0.000344309      4.78558      47.7136 
-0.000243426      10.6846      70.3077 
-9.04694e-05      11.4342     -125.747 
-0.000179843      5.70006      28.2721 
9.04034e-05      8.51924      16.2241 
3.10443e-05      7.88947     -77.4085 
0.000114206      7.13824     -66.3830 
-3.09291e-05      10.1134     -28.5921 
-0.000202384      7.36272     -130.482 
6.09677e-05      10.9877     -49.0596 
-3.09016e-05      8.30601      128.054 
-3.08508e-05      11.9329      140.440 
-3.08505e-05      9.18580      1.99429 
-0.000119496      9.98629     -155.130 
8.91534e-05      7.75829      105.397 
-3.07087e-05      10.3187      74.0231 
-3.06232e-05      5.09117     -139.303 
-0.000286437      8.03974      179.717 
-0.000179477      9.87274     -177.098 
0.000120074      11.9235     -43.9801 
-3.05911e-05      9.77187     -28.3461 
-0.000200290      10.7077      40.6832 
0.000143873      9.98629      155.130 
-8.91333e-05      10.3635     -124.704 
-0.000148130      10.6097      109.837 
8.89913e-05      10.5832      128.170 
-0.000147957      10.4489     -78.5174 
-0.000171548      7.55830     -20.9289 
-0.000235228      13.8737      44.4741 
3.03921e-05      13.3418     -139.864 
5.98282e-05      8.48655     -106.426 
3.02596e-05      4.70610      62.1274 
-0.000147430      8.60710      54.6458 
3.02715e-05      10.5673      56.1903 
-8.85868e-05      10.1312     -28.5373 
5.91626e-05      10.0396      23.6029 
-5.90868e-05      9.09596     -133.663 
-0.000147383      10.3579     -81.3375 
-0.000176266      9.38941      20.0555 
-0.000146190      10.1494      15.0760 
-3.00307e-05      12.1999     -55.2161 
8.93725e-05      9.17869      113.774 
-5.91468e-05      8.93349      170.075 
-2.99912e-05      9.28337      8.54863 
0.000117678      13.3263     -139.808 
8.81820e-05      2.98823      62.0578 
2.99215e-05      10.3026      55.1987 
-0.000190612      2.93639     -31.6267 
-0.000108212      6.18087      59.0351 
0.000117421      7.08543      6.48225 
-5.93105e-05      9.71444     -71.2655 
0.000117881      10.1459      25.2004 
-8.78752e-05      10.9122      117.036 
5.89565e-05      10.1179      64.5980 
-5.81912e-05      10.1001      62.2698 
2.97936e-05      5.71926      70.1742 
-0.000174810      13.3520     -135.849 
-2.97280e-05      6.96421      36.4736 
-2.96713e-05      10.2345      12.2978 
0.000117092      7.16424     -66.2971 
-2.97073e-05      9.64314     -173.450 
5.86299e-05      9.07194      154.677 
-2.96175e-05      11.9200      140.515 
2.95899e-05      8.80164     -27.0325 
8.74544e-05      10.5505      56.1291 
-2.96262e-05      10.6158      58.7931 
-2.95758e-05      7.26013      173.990 
2.93884e-05      10.1004      79.1576 
5.81788e-05      7.13336     -146.086 
-2.93984e-05      7.96157      145.234 
-5.80687e-05      10.2651     -175.976 
8.73827e-05      5.24678      44.5365 
2.93471e-05      6.79107      159.482 
-2.92676e-05      11.7133      31.3836 
-8.45000e-05      10.1980     -124.938 
0.000115862      14.4674     -45.0546 
-0.000116410      10.6778      70.4101 
-8.68879e-05      9.87379     -176.981 
5.79758e-05      10.0458      4.11215 
-0.000116327      12.0168     -57.3658 
2.93189e-05      6.29536      94.0053 
8.51549e-05      2.40380     -126.201 
-5.79921e-05      10.2476      177.763 
0.000138437      5.61024      38.3414 
8.66556e-05      12.7447     -140.540 
5.79664e-05      9.17054      113.658 
2.91256e-05      9.39975      84.7509 
5.78140e-05      10.0472      4.22312 
2.89841e-05      9.74908      2.47040 
-2.89669e-05      10.6328     -107.513 
-5.78336e-05      9.20400     -88.2574 
2.90235e-05      6.07977      90.3748 
2.90334e-05      7.79952      33.8124 
0.000163585      4.96055      37.7921 
2.89501e-05      11.2504     -34.4257 
-2.89071e-05      10.5834     -129.557 
-5.75448e-05      10.6968      70.4465 
0.000202717      11.5501     -48.7192 
0.000500180      8.79250     -27.2058 
0.000129846      10.0040      155.177 
2.88548e-05      10.8710     -69.7638 
2.88309e-05      6.29403      93.8282 
2.87880e-05      6.23686      44.6100 
-2.88228e-05      10.0721     -65.9786 
-5.76130e-05      10.3913     -124.729 
2.88915e-05      10.5933      27.9192 
-7.85128e-05      13.4488      131.322 
-2.87873e-05      10.0893      75.7705 
2.87205e-05      10.1276      25.2493 
-0.000158463      9.64697      40.4572 
-2.86692e-05      13.0837     -41.0957 
-2.85996e-05      11.9922      144.638 
0.000105779      4.37551     -157.419 
-0.000103487      12.6477      49.9385 
0.000519749      13.5432      132.905 
0.000129459      9.93282      155.239 
6.39663e-05      10.5108     -157.630 
0.000146351      8.66494      103.073 
-9.38205e-05      12.6603      49.8709 
9.11242e-05      10.3930     -159.263 
-0.000171254      10.6389     -107.617 
-9.04860e-05      10.6945      40.6009 
-9.04852e-05      10.4956     -123.025 
-0.000140331      8.96353      58.2260 
-0.000189419      11.0047      126.203 
3.06282e-05      10.3684     -156.104 
-0.000248250      10.6479      164.085 
0.000143156      5.74450      70.0501 
-0.000114067      9.25579     -76.5023 
8.71341e-05      6.01299     -126.070 
0.000217396      10.5295     -157.672 
0.000167822      12.3582      129.614 
-5.86996e-05      10.9489     -117.410 
2.96840e-05      5.72267     -97.0272 
0.000194133      8.24855     -10.9021 
-8.61345e-05      11.6822      31.1323 
0.000190099      12.3611      132.180 
-2.95023e-05      7.08521     -23.4536 
-2.93970e-05      9.76069     -81.7522 
-0.000164150      12.6448      49.8118 
0.000268607      10.5342     -132.228 
5.77472e-05      8.78359     -27.0926 
0.000216554      9.35908      64.9698 
5.73367e-05      11.7682     -150.473 
-2.90765e-05      7.98763     -102.434 
-2.89891e-05      10.5016     -122.872 
-0.000137793      5.89725      55.5031 
-0.000157911      12.0024      140.342 
-5.63177e-05      7.11968     -23.6823 
-2.85995e-05      6.87073     -109.909 
-2.84273e-05      10.5591     -68.4398 
-8.32168e-05      3.83839     -41.8382 
5.63704e-05      5.72617      69.9835 
-2.83942e-05      10.0125      120.355 
5.40533e-05      10.8476      134.476 
-0.000105281      10.9669     -117.361 
5.56748e-05      7.11187     -66.4617 
-2.80366e-05      10.5126     -122.965 
-8.13823e-05      7.97225     -102.608 
8.11504e-05      4.74849     -173.713 
-5.49218e-05      7.72827      68.2823 
0.000107894      7.76215     -68.0597 
5.32614e-05      10.5786      56.0991 
-0.000156028      11.5568      141.464 
-2.79083e-05      11.3706     -135.425 
-5.31903e-05      7.82299      151.272 
-0.000107628      9.96837      30.3735 
-5.48004e-05      6.34381     -108.947 
5.39527e-05      6.25130      44.4796 
0.000131686      4.85492      34.9354 
-0.000106215      3.43019     -113.722 
-2.76738e-05      9.40641      73.9535 
-0.000107583      13.4768      131.332 
0.000104301      4.81522      175.477 
2.76471e-05      5.94548     -17.8221 
0.000105984      11.7512     -150.426 
-5.42725e-05      4.67184      11.3569 
-0.000104314      12.2443     -142.700 
-5.40179e-05      8.03987      179.572 
0.000180774      7.54320     -112.279 
-0.000158373      10.1096      62.1682 
8.05327e-05      11.1404     -53.0274 
-0.000206812      8.16704     -25.6892 
0.000153336      11.5418      134.017 
5.27635e-05      5.19253     -127.484 
-0.000106702      12.0153      140.268 
-2.73850e-05      9.76351     -81.6389 
-7.88975e-05      6.86411     -109.756 
2.73568e-05      10.3077      55.3555 
5.30602e-05      10.4120     -159.303 
-7.76599e-05      4.73742      44.4866 
-0.000102806      12.6322      49.8794 
-5.34658e-05      10.5403     -68.3993 
-2.70852e-05      9.57894      61.0295 
-0.000104016      10.8624      32.9007 
-2.68638e-05      9.49499     -12.7798 
-2.69141e-05      7.05926     -23.3657 
7.79638e-05      11.8361     -125.301 
-0.000103015      11.3425     -135.429 
-7.71438e-05      10.6924      40.7539 
-2.68264e-05      7.28698      111.919 
0.000129200      11.0537     -47.2724 
2.67488e-05      11.5554      134.087 
7.80969e-05      8.23741      100.492 
0.000128639      5.73762      70.2403 
2.66785e-05      6.72463     -49.5846 
-7.71789e-05      6.97991      36.3783 
-7.72129e-05      13.4164     -132.826 
-5.22692e-05      12.0599     -57.0476 
-7.82791e-05      7.92095      41.4167 
-2.65603e-05      4.73829      44.1466 
7.63399e-05      6.39035     -120.256 
0.000127946      9.55502     -140.945 
5.17335e-05      9.06544      4.30086 
-2.63806e-05      5.69188      28.5484 
7.63555e-05      5.10807     -7.87775 
2.62680e-05      2.39233     -125.824 
-2.63097e-05      6.99836     -23.0461 
-2.62279e-05      7.07511     -119.466 
7.59045e-05      11.5354     -48.6552 
5.11136e-05      7.78094     -68.1155 
-2.62125e-05      10.0708      120.691 
-2.61386e-05      4.72377      44.3178 
-5.06536e-05      11.6328     -33.1447 
-0.000101059      7.29428      112.061 
2.60105e-05      10.9601      64.8385 
2.60563e-05      12.3426      129.674 
-0.000100975      9.59601      61.0860 
5.11839e-05      10.4881      157.933 
-7.60283e-05      9.51475     -12.7528 
-7.62927e-05      5.01081      112.775 
-7.53096e-05      6.44285     -132.106 
7.59946e-05      11.0722      124.178 
0.000100475      11.1282     -53.1108 
-5.10856e-05      6.97278     -22.9614 
-2.56924e-05      4.08048     -77.2621 
5.03112e-05      5.02787      18.7973 
2.56104e-05      8.68395      103.044 
-5.00200e-05      7.30550     -76.3834 
7.53352e-05      8.23326     -11.0662 
-5.01335e-05      5.68413      28.8151 
7.52460e-05      12.3301      129.605 
-2.55229e-05      13.4622      131.387 
-4.99751e-05      7.72107      68.4168 
5.04436e-05      10.1057      171.692 
-5.01667e-05      9.15819      124.143 
-5.01622e-05      13.4021     -132.883 
2.51851e-05      2.95315      61.6963 
-4.99803e-05      9.95089      30.4325 
2.51874e-05      8.76976     -123.656 
-4.97980e-05      8.06000      179.717 
4.97063e-05      5.21813      44.5339 
-4.97461e-05      12.0493     -57.1254 
-7.44746e-05      7.89235      41.4037 
7.44035e-05      8.49813      34.0619 
4.97848e-05      8.70827      103.144 
-2.51305e-05      3.27974     -102.688 
-2.49789e-05      7.96842     -29.1406 
2.50022e-05      4.59771     -152.544 
-2.49373e-05      3.94616     -78.0042 
-2.49095e-05      9.26037     -76.3849 
4.94581e-05      13.5294      132.842 
-2.48641e-05      7.93565      125.253 
2.48402e-05      7.58386      17.8146 
2.49044e-05      6.73779     -49.4534 
-2.48170e-05      9.78651     -81.5387 
2.47786e-05      13.8858      132.606 
-4.91609e-05      6.96490     -22.8079 
2.47144e-05      8.75855     -123.546 
-2.46883e-05      7.97653     -102.745 
-2.47106e-05      2.74131     -172.877 
2.46880e-05      11.7336     -150.377 
-2.46098e-05      6.55143      77.6591 
2.45466e-05      5.52765      126.910 
2.45363e-05      5.96138     -125.719 
-2.45355e-05      3.72558      41.7342 
-2.44597e-05      6.68113      63.5127 
-2.45057e-05      5.26208      178.472 
-2.44443e-05      7.28159      173.853 
2.44458e-05      6.26551      44.6118 
-2.44571e-05      7.70052      126.125 
-2.44090e-05      6.31833     -108.839 
! Tentative model.
! Flux (Jy) Radius (mas)  Theta (deg)  Major FWHM (mas)  Axial ratio   Phi (deg) T \
! Freq (Hz)     SpecIndex
2.76864e-05      10.4265     -15.2358 
