! Center RA: 12 21 31.69052,  Dec: +28 13 58.50011 (2000.0)
! Established model.
! Flux (Jy) Radius (mas)  Theta (deg)  Major FWHM (mas)  Axial ratio   Phi (deg) T \
! Freq (Hz)     SpecIndex
 0.0822849    0.0286526     -45.0000 
 0.0389850    0.0202604     -90.0000 
0.00145959    0.0202604      0.00000 
0.00137175      0.00000      0.00000 
0.000439925    0.0202604      90.0000 
0.00127681    0.0397705      90.0000 
0.00423994    0.0600310      90.0000 
0.00558941    0.0446338     -63.0042 
0.00431607    0.0802914      90.0000 
0.00196147    0.0633577     -71.3505 
0.00840407    0.0720098     -56.4755 
0.00775888    0.0828082      104.162 
0.00723946    0.0848966     -45.0000 
0.00483072     0.101837      101.476 
0.00171358    0.0896014      116.350 
0.00486841     0.100252     -36.7841 
0.00250796     0.107434      111.727 
0.00288176    0.0998015      90.0000 
0.000669719    0.0562440     -45.0000 
0.00130128     0.120062      90.0000 
0.00374832    0.0720098     -33.5245 
0.000211874     0.140322      90.0000 
0.000416871     0.159832      90.0000 
0.000601984     0.180093      90.0000 
0.000762701     0.200353      90.0000 
0.000184662     0.201375      84.2257 
0.00105676     0.220795      84.7351 
0.00471156     0.240124      90.0000 
0.00138197    0.0720098      123.524 
0.00256479    0.0848966      135.000 
0.000862739     0.113549     -45.0000 
0.000173491    0.0720098      146.476 
0.000170967    0.0848966     -135.000 
0.000799266     0.260423      94.4620 
0.00153514     0.128090     -38.8171 
0.000472313    0.0896014     -153.650 
0.000161296     0.243395      80.5958 
0.000155792     0.253192      71.5114 
0.000301203     0.260038      67.4310 
0.000150572     0.262662      98.7088 
0.000147882     0.100252     -143.216 
0.000147530     0.282706      98.0871 
0.00103442     0.250509      61.3621 
0.000429579     0.286260      102.105 
0.000280747     0.107434     -158.273 
0.00211005     0.144435     -33.7726 
0.000800866     0.306099      101.310 
0.000518940     0.156126      50.2649 
0.000752921     0.116465     -148.973 
0.000262444     0.100252      143.216 
0.00182299     0.329594      104.100 
0.000369114     0.107434      158.273 
0.00103559     0.260826      57.4530 
0.000764034     0.169793      45.0000 
0.000663990     0.116465      148.973 
0.000223472     0.134233     -153.435 
0.00145166     0.278118      59.6991 
0.000107709     0.128090     -141.183 
0.00199017     0.161670     -29.7779 
0.000955899     0.144435     -146.227 
0.000487151     0.134233      153.435 
0.000672814     0.349279      103.290 
0.000976743     0.184676      40.5508 
0.000755094     0.144435      146.227 
0.00100331     0.354273      106.362 
8.58568e-05     0.253192      108.489 
0.00119667     0.156126     -140.265 
0.000984274     0.288454      56.3513 
0.000446666     0.199903      36.9129 
0.000289362     0.223834      116.479 
0.00170544     0.373757      105.487 
0.000616849     0.161670      150.222 
0.00130557     0.178866     -26.6725 
0.000725647     0.188432      31.9812 
0.000962194     0.172194     -144.578 
0.000290998     0.216445      123.690 
0.000404194     0.172194      144.578 
0.000380856     0.216445      33.6901 
0.000215548     0.304887      58.3833 
0.000105711     0.178866      153.327 
5.22411e-05     0.184676     -139.449 
0.000753906     0.172194      35.4216 
0.000403447     0.161670      119.778 
7.71677e-05     0.172194      125.422 
0.000295035     0.178866      26.6725 
0.000294987     0.156126      129.735 
0.000651945     0.169793      135.000 
0.000273159     0.170734      20.5855 
0.000192512     0.164706      13.9729 
0.000527546     0.295127      61.6104 
0.000455054     0.161670     -150.222 
6.17853e-05     0.161111      7.22432 
6.10023e-05     0.152624     -156.838 
6.07573e-05     0.184432      12.4530 
5.95684e-05     0.181229      6.41879 
0.000116069     0.180093      0.00000 
5.80468e-05     0.184676      130.551 
0.000110889     0.181229     -6.41879 
0.000111092     0.392593      104.727 
0.000109370     0.189835      18.4349 
0.000108732     0.184676      139.449 
0.000542649     0.412220      104.011 
0.000301865     0.184432     -12.4530 
0.000383199     0.443026      71.5344 
0.000449643     0.198446      135.000 
0.000116297     0.197181      24.0289 
0.000317178     0.188432     -148.019 
0.000421644     0.189835     -18.4349 
8.94664e-05     0.205897      28.9938 
0.000348828     0.622720      95.5320 
0.000130724     0.284207      50.6787 
0.000200107     0.461573      72.3015 
0.000724910     0.199903     -143.087 
0.000368373     0.417588      106.709 
0.000115533     0.233573      30.9322 
0.000842248     0.642889      95.3579 
0.000270083     0.283342      45.0000 
0.000433373     0.199903      143.087 
0.000324351     0.223834      26.4792 
0.000499684     0.197181     -24.0289 
0.000511240     0.467874      70.0247 
0.000253842     0.423858      109.333 
0.000519179     0.212689     -138.719 
0.00103956      1.34166      63.4206 
0.000174577     0.284207      39.3213 
0.000218536     0.663064      95.1944 
5.10410e-05     0.220795      174.735 
0.000184457     0.205897     -28.9938 
0.000400618     0.411965      112.829 
2.44934e-05     0.212689      138.719 
0.000338555     0.216445      146.310 
5.98068e-05     0.240977      175.177 
0.000273248     0.215843     -21.8384 
0.000186992     0.486965      70.8391 
0.000209414     0.635505      77.2437 
0.000193527     0.259634      180.000 
0.000180122     0.226037     -135.000 
0.000416162     0.509380      135.000 
0.000199880     0.665204      96.9326 
0.000273823     0.297458      42.3417 
0.000109181     0.430710      111.783 
0.00126615      3.83714      67.3164 
0.000204718     0.215843      21.8384 
9.39703e-05      1.39720      66.3812 
1.87363e-05      2.27376      140.705 
0.000396589     0.223834     -26.4792 
0.000141551      2.25869      140.392 
5.40055e-05      1.33320      62.2955 
0.000105010     0.240790     -138.411 
0.000733185      1.92192      92.3943 
0.000276465      1.41510      66.6977 
0.000116529      1.34274      61.5301 
1.70693e-05      1.13565      63.8921 
0.000220745     0.279894      180.000 
6.59441e-05      2.24312      140.062 
0.000212258      1.14471      62.9814 
0.000505089      1.23409      106.970 
0.000319289     0.254690     -135.000 
0.000109911      2.51205      142.757 
7.77342e-05      2.22762      139.727 
0.000541331      1.75967      148.479 
0.000131677      1.35251      60.7756 
0.000350189     0.667840      98.5944 
0.000305284      2.21277      139.401 
0.000152050      1.06498      95.3772 
0.000442407      1.43373      67.0180 
0.000190581     0.475177      67.7281 
0.000688997      1.31587      163.229 
0.000129087      1.36215      60.0594 
0.000245976      1.35498      58.8893 
0.000489093      3.82965      67.5857 
4.31011e-05     0.260423      175.538 
0.000156808      2.18421      139.458 
0.000332001      1.74916      149.045 
0.000414352      1.94141      92.3703 
0.000116880     0.312731      39.8408 
0.000105292      1.08441      95.2806 
0.000130947     0.269397     -131.952 
5.37953e-05     0.523357      136.510 
0.000183061      3.72902      67.2844 
3.53009e-05      2.49655      142.486 
8.43702e-05      2.16942      139.124 
0.000185270      1.36556      58.1615 
0.000166992      1.45240      67.3300 
3.47014e-05      1.32186      162.388 
4.77809e-05      1.08646      96.3446 
1.66095e-05      1.26660      164.432 
7.16631e-05      1.34833      159.134 
4.71872e-05     0.283342     -135.000 
5.50901e-05      1.24172      165.082 
4.69733e-05      3.72125      67.5721 
1.53492e-05      2.34899      141.563 
3.07195e-05      3.84770      67.6964 
7.54394e-06      1.35540      158.364 
0.00100281      10.1842     -114.601 
-0.000881317      4.13437     -175.284 
-0.000656477      9.89946     -114.339 
-0.000445932      9.97870     -169.142 
-0.000682256      10.9841     -65.8146 
-0.000295223      1.56121      2.20366 
0.000649653      10.4954      41.8353 
0.000588083      12.1668      38.0566 
0.000588912      5.33857      12.1139 
-0.000336090      6.77600      136.315 
-0.000428694      11.2837     -155.160 
-0.000578887      10.4730     -121.807 
-0.000531261      9.39140      124.063 
-0.000516331      10.0986      38.1651 
-0.000321570      5.54242      95.1734 
0.000165233      8.98454      148.010 
0.000450657      8.22225     -111.698 
0.000411886      8.94403     -10.3040 
-0.000255811      9.24930      64.1002 
-0.000458391      8.50248     -178.518 
-0.000297374      7.12878     -177.104 
0.000495526      4.25714     -172.444 
0.000348463      9.86848     -173.249 
-0.000158457      3.22553      71.5693 
-0.000347664      7.83697      100.739 
-0.000340469      1.54096      2.23262 
0.000294337      9.70736      55.9144 
-0.000104856      6.77824     -68.3541 
-0.000103810      10.0093      147.485 
9.63376e-05      9.75942      160.862 
0.000376091      10.0218      23.6476 
0.000143304      8.96736      147.942 
0.000191376      10.0291     -152.056 
-0.000145419      4.96475      161.932 
-0.000182178      6.06004      11.4199 
0.000281624      5.77370      99.1685 
-0.000231598      6.76136      136.196 
0.000240673      11.7339     -49.6324 
-0.000189361      3.20631      71.4548 
-0.000246915      4.37806     -84.7584 
4.96069e-05      3.39719     -8.45943 
0.000225005      8.64906      63.1993 
0.000276720      9.96145      16.3230 
-0.000186247      10.0198      147.391 
9.47011e-05      9.28997     -128.006 
-0.000141186      6.75942     -68.2907 
-0.000471733      11.4536      59.8081 
-0.000140164      9.25641      84.9166 
4.85352e-05      9.74695      160.710 
-9.43009e-05      4.59816      67.2262 
-0.000186062      9.55235     -76.8087 
0.000321311      7.65786     -172.947 
4.82678e-05      10.9541      57.9060 
0.000229959      6.41830     -112.731 
-0.000230209      10.4740     -103.135 
-0.000212337      7.10380      79.2919 
-0.000137630      5.54429      95.3819 
0.000181882      7.36340     -144.846 
0.000137272      10.1927     -114.705 
0.000112665      1.18938     -42.2640 
9.17115e-05      8.00949     -54.2445 
4.68671e-05      8.73491      71.0249 
9.18425e-05      10.9712      57.9622 
-9.04778e-05      5.96468     -59.1339 
9.05891e-05      6.95069     -123.141 
9.08753e-05      7.09633     -102.036 
0.000255143      5.31949      12.1580 
9.01542e-05      11.8190     -141.113 
8.95019e-05      10.8708     -22.2736 
-8.99104e-05      6.07990      11.3820 
4.54131e-05      8.78982      104.763 
-8.86014e-05      9.39635      158.132 
8.88050e-05      5.30824      155.754 
-4.49752e-05      5.07583      49.1543 
-8.83576e-05      9.46301     -160.493 
-8.79021e-05      11.4797      47.4716 
-4.45569e-05      8.56059      96.8416 
4.43042e-05      10.0618      31.9216 
4.42809e-05      7.13254      110.521 
4.42679e-05      1.84233      32.1365 
-4.41869e-05      7.50618     -139.647 
-4.41326e-05      9.40234      124.162 
-4.40843e-05      11.6830     -148.297 
4.40231e-05      6.91381      3.64655 
-4.39164e-05      9.24047      64.2132 
4.38943e-05      3.62511      118.687 
-0.000339160      4.84200     -50.1933 
4.38939e-05      2.94866      38.1065 
-0.000269484      5.08910      48.9818 
-4.35602e-05      10.2503      29.9660 
-4.35699e-05      9.26935     -8.81034 
4.35607e-05      7.07651     -102.070 
-4.33677e-05      6.75195     -68.4505 
-4.33050e-05      9.01608     -99.1903 
0.000260396      7.02719      111.013 
0.000518279      12.3542     -48.4127 
0.000175011      7.04611      110.954 
0.000362963      7.48854      115.130 
-0.000596399      4.09213      161.482 
0.000515847      9.40115     -89.1448 
0.000357331      10.6956      145.745 
0.000580341      6.94291     -105.194 
0.000340736      7.05338      111.108 
0.000656436      9.31418      76.5885 
0.000268575      8.53372      60.6738 
-0.000144006      9.92507     -19.4213 
-0.000338439      11.6936     -148.212 
0.000367474      8.30578      99.1440 
0.000243339      5.39934     -81.4803 
-0.000220111      3.74410     -161.950 
0.000334152      9.90386      16.4207 
0.000276624      3.75511     -170.186 
-0.000171717      12.5696      53.9319 
0.000438753      12.3672     -48.3451 
-0.000128982      5.58451     -19.0168 
0.000162189      4.24036      62.4691 
0.000174736      7.15568     -128.759 
0.000227874      7.58180     -1.36109 
-0.000159376      9.98590      94.1368 
0.000116760      7.02804     -123.512 
-0.000236444      11.6286      57.4318 
0.000775018      10.6842      145.834 
0.000375158      4.23103      62.7124 
0.000210783      9.94040     -53.5894 
-8.42914e-05      9.54402      37.4222 
0.000307710      5.79028      111.691 
0.000232347      13.9210      46.5136 
8.55721e-05      8.53356      115.842 
0.000332954      4.27352      35.4734 
-8.25887e-05      9.21680      95.1053 
0.000233990      10.0059      23.4389 
0.000322521      2.54225     -10.4243 
7.90060e-05      7.96063     -97.0714 
-0.000109549      9.87051     -65.2020 
0.000339950      6.83056     -20.9318 
-7.96903e-05      11.8872     -33.6108 
0.000152468      10.1740     -97.7954 
0.000617327      10.3872      60.7203 
7.87255e-05      8.54366      60.5553 
0.000372562      10.5217      13.7469 
0.000245179      6.70946     -129.190 
-0.000113881      11.3493     -37.6996 
0.000205076      9.75873     -106.428 
0.000245669      8.55112      115.785 
-0.000408897      12.0211      135.402 
-0.000265884      10.9321      20.7899 
0.000184235      1.15971     -46.3895 
0.000211316      9.65657     -143.675 
0.000364742      7.14048     -128.857 
0.000468663      9.84319     -166.725 
6.94350e-05      9.04287     -150.883 
0.000106690      9.56079     -13.9195 
3.85654e-05      1.71588      36.4640 
0.000475817      12.4453     -140.475 
-7.50691e-05      8.19875     -13.2540 
-0.000110040      10.0582      38.0523 
-3.75066e-05      9.09134     -33.5169 
-0.000136737      4.90477     -104.885 
-0.000398356      12.2816     -34.1804 
0.000173132      5.52019     -64.9224 
-0.000224812      11.7396     -32.6875 
-6.32546e-05      6.21526      77.1718 
0.000105140      5.32364      12.3632 
8.74430e-05      9.61835      149.648 
8.20888e-05      8.88148     -10.2494 
-9.91251e-05      8.73263     -120.560 
0.000213976      8.93824      32.4826 
0.000131424      7.79469     -150.145 
-0.000272229      6.48462      141.012 
3.54402e-05      7.97429      48.1506 
0.000212524      10.5257      41.6882 
-0.000293451      1.54447      4.45849 
-3.49644e-05      4.48309      135.183 
0.000542632      12.7679     -131.381 
-9.63400e-05      6.21979      76.9898 
0.000314937      12.6981     -142.100 
0.000297543      7.16703     -33.7333 
3.47252e-05      7.90341     -100.941 
-6.79052e-05      4.09861      161.213 
3.46945e-05      6.35087     -112.201 
-9.87489e-05      8.20342     -13.3918 
0.000289369      8.15928      66.4527 
-3.44457e-05      9.23446      94.9693 
0.000117307      10.8029      108.903 
-0.000253879      9.78767      48.2289 
0.000572570      9.98729      23.4852 
-0.000313407      10.0462      37.9647 
0.000117187      5.80842      111.620 
0.000149995      10.1940     -97.7800 
3.37775e-05      8.19202     -6.44799 
-0.000186536      3.83351      9.61167 
9.08057e-05      7.02212     -77.6658 
-0.000236119      11.7043     -148.128 
0.000205239      7.90728     -101.085 
6.08988e-05      7.02259     -123.733 
6.54089e-05      5.00954      83.8086 
0.000157224      9.40146     -89.0259 
-0.000179730      5.76464      41.7655 
-0.000150090      11.6181      57.5129 
6.36221e-05      6.36963     -112.132 
-0.000582745      13.5744      138.583 
0.000145261      9.48888      107.289 
6.13295e-05      7.95921      48.0533 
-6.34475e-05      4.10228     -121.445 
5.40226e-05      5.94239     -28.5521 
3.26014e-05      1.17378     -45.6734 
-6.31440e-05      11.9088      37.5631 
0.000122218      9.92470     -53.5226 
-9.16039e-05      8.89432     -109.574 
-3.23412e-05      9.27834      84.8077 
-0.000146236      13.5624     -134.700 
0.000921176      13.9344      46.4554 
3.19967e-05      7.60205     -1.35747 
8.99687e-05      3.20753     -160.327 
-3.18999e-05      11.7286     -32.6042 
-8.85453e-05      5.10242      48.8101 
0.000119314      9.76522      161.863 
0.000341150      5.49426     -65.0205 
0.000141435      9.92329      16.3876 
-9.12412e-05      10.0324     -170.011 
-0.000317202      11.4653      47.4057 
8.21282e-05      9.50748      101.403 
0.000116984      11.6614     -142.246 
3.14786e-05      8.06076     -152.037 
-3.15004e-05      4.08603      160.853 
-0.000115354      9.56011      37.3484 
0.000165722      8.30258      99.0060 
3.13601e-05      7.06070      111.261 
0.000114827      3.34714      103.127 
3.12541e-05      9.29447      76.5595 
-0.000698605      10.0626      88.6326 
-5.83673e-05      1.23651     -140.911 
-3.10832e-05      6.44121      121.023 
-3.10724e-05      4.75189     -52.6940 
-0.000139838      6.25280     -163.655 
0.000135032      3.44405     -27.3132 
-8.94339e-05      7.96701     -106.481 
7.84946e-05      2.73559      41.1519 
-0.000195104      9.18242     -1.25025 
0.000114990      6.39417      104.865 
-0.000307519      13.5480     -134.760 
-0.000189442      10.1609      29.9979 
-0.000269508      11.6016     -41.7148 
0.000198548      5.01168      83.5869 
0.00101242      11.0526     -157.889 
-0.000140377      4.91002     -105.113 
5.76344e-05      9.64025     -143.604 
0.000136788      8.95243     -77.4863 
-7.85687e-05      9.80079    -0.701904 
0.000152533      10.5457      125.741 
-2.97461e-05      4.09247      160.595 
5.76899e-05      1.15990     -45.0000 
0.000185149      9.30950      76.7098 
-2.93540e-05      7.20375     -28.3456 
-0.000109447      10.7191      28.0487 
5.45581e-05      9.47277     -164.319 
2.91326e-05      1.73671      35.1664 
-0.000159562      9.80056    -0.583467 
8.28541e-05      8.63537     -86.5476 
0.000254204      8.06409     -1.84503 
0.000131480      4.68075      14.0942 
2.89713e-05      4.32940      116.330 
-0.000131790      11.8964      37.4857 
-5.66711e-05      8.99438      155.430 
-7.66078e-05      11.6413      133.955 
-0.000128018      3.75960      104.483 
0.000169744      5.49718     -112.462 
-5.55608e-05      12.7743     -138.045 
8.37743e-05      11.6879      123.907 
2.84788e-05      10.5554     -161.325 
-2.84114e-05      3.21992      153.435 
0.000148197      11.0399      145.330 
-5.49993e-05      5.45914     -15.5148 
-7.83101e-05      7.22159     -28.2693 
5.46124e-05      10.6474      64.8780 
0.000245190      9.60502      88.0928 
-5.19135e-05      9.36437      38.5845 
9.92193e-05      9.45326     -164.286 
5.29379e-05      10.2501      104.577 
7.71667e-05      10.5746     -161.361 
5.34919e-05      9.77745     -106.396 
-2.72761e-05      5.87602     -71.1347 
-0.000205267      5.27900      58.4789 
5.33982e-05      6.69715     -129.061 
5.04538e-05      9.01532     -150.932 
2.72482e-05      6.22625     -87.4235 
8.86030e-05      12.0205      31.9459 
2.70766e-05      6.62918     -117.879 
7.56407e-05      3.75171     -170.491 
-0.000323583      10.9012      20.9613 
-2.69787e-05      3.23806      153.595 
-2.69139e-05      4.09925      160.328 
0.000111343      7.78462     -150.274 
2.68141e-05      11.3058     -153.299 
-0.000236722      5.86950     -71.3218 
-2.66616e-05      9.00283      155.313 
0.000171206      11.6766      123.825 
2.65875e-05      12.7787      129.221 
0.000187148      8.74177      35.6875 
0.000207158      6.24649     -87.4318 
-2.64324e-05      4.52891     -72.5287 
0.000749320      11.6038      35.3869 
-4.74452e-05      9.08631     -33.6914 
0.000278778      6.38901      104.689 
-9.47805e-05      4.16134      1.37426 
-2.61210e-05      4.27541     -42.3467 
9.50542e-05      2.75594     -111.717 
-0.000146228      13.2421      39.4838 
-8.83793e-05      11.3281     -44.6431 
4.86264e-05      3.94511      38.2105 
9.43024e-05      8.07963      164.348 
2.57866e-05      1.17378     -44.3266 
-0.000156445      9.01281      155.483 
0.000255972      7.48296     -123.776 
-4.84896e-05      9.57623      37.2749 
-2.55796e-05      8.22240     -13.3603 
-0.000200050      5.95431     -59.3012 
-4.81874e-05      3.21091      153.758 
-0.000272134      8.89269     -23.7401 
-2.54037e-05      7.96128     -106.341 
0.000189200      11.2967     -153.391 
-2.53983e-05      9.29218     -124.478 
9.44110e-05      8.28774     -162.876 
-0.000156522      9.02124      155.366 
0.000496356      12.9402     -135.439 
-0.000434603      4.26179     -42.1454 
2.50687e-05      5.75566      107.802 
8.87827e-05      7.97227      47.9491 
2.49838e-05      10.6388      64.9768 
0.000113692      3.35162      103.451 
9.19835e-05      11.6578     -142.106 
-0.000228685      4.93396     -105.273 
-0.000164912      9.25581     -97.3267 
4.82399e-05      8.30412     -113.417 
-0.000529287      9.16216     -1.25301 
-0.000137166      10.0258      147.545 
-0.000232151      10.7363      27.9997 
4.70244e-05      10.7556      56.2223 
2.45451e-05      7.01178     -123.600 
-4.69776e-05      12.7457     -138.052 
7.06759e-05      6.82335     -20.7729 
6.83014e-05      8.50673     -58.8508 
4.79166e-05      11.8942      45.6109 
-2.42906e-05      8.56231     -131.020 
4.62490e-05      12.7659      129.151 
0.000450441      11.0450     -157.987 
9.20210e-05      11.8945      45.7489 
-6.67550e-05      11.6073      57.5973 
6.60618e-05      9.45439     -62.9489 
0.000132146      10.7658      109.309 
4.62196e-05      10.7724      142.617 
6.76585e-05      8.95684     -77.3598 
-4.62327e-05      6.23911     -163.424 
-0.000141404      11.2743      133.635 
-0.000200828      1.52356      3.75588 
0.000130325      12.7808     -131.446 
2.36097e-05      10.4682     -133.609 
0.000224499      10.1607     -98.8321 
0.000576945      9.50751      107.254 
-0.000150530      4.79652      46.8574 
0.000128934      4.52589      14.5869 
6.56206e-05      6.68143     -129.170 
-4.53111e-05      8.57611      107.928 
0.000154818      7.51011     -118.816 
2.33858e-05      9.32386      76.8585 
-0.000246605      11.9125      37.4264 
6.50615e-05      5.77495      107.740 
2.32688e-05      6.63868     -118.034 
0.000211968      10.3240     -17.2417 
-4.49265e-05      12.8562     -137.775 
-0.000158076      8.14520     -83.9396 
2.31069e-05      10.2452      104.472 
0.000262443      8.67628      63.1402 
2.28406e-05      9.17744     -111.478 
-0.000117628      8.22711     -13.4976 
4.31672e-05      7.58231     -1.51415 
-4.49386e-05      6.67882     -46.9395 
-0.000122949      8.56483     -130.833 
-2.27486e-05      5.45375     -15.3097 
0.000119938      10.4829     -133.532 
2.25085e-05      9.34359      76.8867 
2.24107e-05      10.5683     -161.461 
-0.000296999      11.4372      47.4090 
0.000358054      11.8800      45.6807 
-6.38880e-05      12.8804     -50.2282 
6.46756e-05      12.9828     -135.499 
-4.13911e-05      11.7560     -32.6361 
6.28147e-05      8.30638     -162.916 
9.57154e-05      9.60813      149.752 
-2.21411e-05      9.78030    -0.584675 
-0.000115326      10.2125     -123.255 
-6.14226e-05      6.81954      136.663 
2.20668e-05      12.3806     -48.2750 
0.000455709      9.22032     -31.5156 
2.20078e-05      7.09778      111.144 
4.33620e-05      9.33918      77.0033 
-0.000430606      13.2549      39.5514 
-0.000104329      5.85031     -71.2583 
-4.22749e-05      10.1440      30.0529 
4.23296e-05      8.13360      66.5238 
-6.06008e-05      9.81193      26.2535 
-0.000115787      6.25853     -163.477 
6.06366e-05      8.89180      146.559 
6.12798e-05      9.94201      16.3559 
-2.15455e-05      8.42113     -42.7864 
0.000109829      8.37499     -3.42102 
9.56757e-05      12.3952     -48.3351 
6.11007e-05      9.79639     -132.352 
-4.24436e-05      6.49739      140.873 
-0.000967940      13.5879      138.519 
9.86676e-05      9.17004     -111.360 
0.000108945      3.57070      48.6294 
-0.000287082      6.66458     -46.8250 
5.45318e-05      6.91915     -136.758 
9.89071e-05      11.2640     -147.692 
0.000152534      6.79793     -20.6715 
0.000153369      7.47171     -123.647 
0.000257543      11.6658      123.745 
2.12188e-05      10.7569      142.554 
-0.000165307      10.5189      116.419 
-0.000117820      9.78053    -0.703358 
-2.10478e-05      5.52299      95.1916 
0.000232295      13.8882     -135.584 
-4.16532e-05      6.55703      152.573 
0.000134765      8.55324      37.7798 
2.09531e-05      7.91105     -101.224 
5.94740e-05      12.7380      129.135 
-4.11858e-05      10.0694      79.4714 
0.000168936      9.35893      77.0312 
9.62896e-05      6.90440     -136.643 
0.000183184      10.0267     -23.1400 
7.46147e-05      10.5532      41.6968 
2.07108e-05      9.18884     -137.734 
-2.07205e-05      9.79443      26.3040 
-4.08771e-05      4.82703     -50.0450 
0.000181626      9.58489      88.2055 
4.00638e-05      10.6303      65.0757 
-0.000180520      6.51254      140.981 
3.94183e-05      10.7838      56.1927 
2.05894e-05      9.52734      101.379 
9.49707e-05      10.2567     -121.767 
-3.93579e-05      3.76452      104.770 
4.02133e-05      7.50217     -119.026 
0.000194271      11.0284      145.417 
2.03619e-05      4.61946     -119.005 
2.04059e-05      3.74854     -170.785 
9.48889e-05      12.8283     -134.306 
0.000548675      13.8858     -42.6063 
3.98692e-05      8.91203      162.502 
-9.61358e-05      2.11372     -55.4129 
-3.90359e-05      8.43546     -42.6964 
0.000366595      10.2840     -121.806 
-5.35665e-05      7.08328      23.8115 
2.00542e-05      7.51989     -118.951 
-0.000128442      6.57502      152.654 
-3.92609e-05      12.8412     -137.714 
2.00812e-05      8.92484     -10.3264 
-2.00017e-05      5.52126      94.9900 
0.000298304      6.38390      104.513 
-0.000478522      10.9201      20.9233 
3.97198e-05      11.8813      45.9545 
3.78095e-05      2.73712     -111.874 
0.000111020      5.69124     -168.647 
-1.97978e-05      3.83695      9.90997 
1.98252e-05      3.93261      37.9785 
-0.000242761      10.0930      79.3793 
7.35569e-05      7.56280     -1.51805 
0.000209945      10.7467      109.345 
0.000144271      9.32676     -177.787 
0.000246849      9.82347     -166.698 
-0.000106414      9.06208     -14.8348 
5.57058e-05      8.14139      66.3978 
0.000127941      11.9788     -44.5254 
0.000129970      7.51166     -119.156 
-0.000205009      4.84007     -49.8612 
-3.77601e-05      11.5964      57.6818 
-1.93923e-05      5.51954      94.7805 
0.000107129      7.39712      116.147 
8.81949e-05      3.37133      103.371 
0.000408414      11.4433     -146.116 
1.93546e-05      4.59193     -118.906 
1.92134e-05      7.96458     -148.347 
7.37291e-05      11.8813      46.0901 
-0.000132743      9.04249     -14.8677 
-0.000100594      10.9565      153.202 
-1.91422e-05      8.54298     -178.525 
0.000189395      10.9273      113.514 
7.36008e-05      8.90618      162.621 
7.81274e-05      7.97119      79.5924 
-0.000145671      9.69845      132.244 
-1.88786e-05      3.38086      79.0866 
1.88741e-05      11.6424     -142.047 
1.87617e-05      6.42109     -134.493 
0.000142846      11.7179     -144.166 
0.000207626      8.42087     -166.262 
0.000183108      9.35273      145.632 
6.78328e-05      12.1765      47.7950 
0.000108963      13.9163     -135.581 
6.84892e-05      9.96717      16.4348 
-1.86271e-05      5.17873     -105.911 
-9.93636e-05      4.20121      78.7422 
-3.61154e-05      8.32845     -142.413 
1.85637e-05      8.80619     -158.972 
-1.84926e-05      11.7215     -148.180 
3.62290e-05      7.99246     -148.299 
-6.91641e-05      5.84407     -71.4394 
3.59402e-05      10.6037      65.1252 
-1.83004e-05      5.51789      94.5708 
0.000103283      5.32586      68.6408 
1.83240e-05      8.52343     -58.9186 
-9.98846e-05      9.77594     -21.1048 
-1.82729e-05      6.04805     -172.780 
3.52956e-05      12.7257      129.067 
-3.53051e-05      4.76844      46.8747 
0.000244804      10.0344     -23.2425 
0.000407064      13.6049      131.304 
5.13209e-05      6.26511     -87.6249 
-6.46060e-05      9.97173      43.9451 
-1.80728e-05      9.39810      155.614 
-3.57954e-05      13.5061     -134.820 
-6.85738e-05      5.92693     -59.3634 
0.000352603      12.7527     -131.441 
1.80128e-05      5.79354      107.682 
1.79656e-05      11.6544     -141.972 
-5.02761e-05      8.52273     -178.522 
1.79128e-05      5.83815      4.51901 
0.000185307      12.4303     -140.418 
-0.000420677      12.2978     -34.1293 
-1.79050e-05      12.8549     -137.647 
-1.78552e-05      11.3139     -44.5701 
3.48960e-05      14.0580      134.423 
-6.57101e-05      8.45036     -42.6033 
-1.77656e-05      2.11888     -56.1467 
-0.000146030      10.7542      27.9490 
9.61037e-05      12.1629      47.8657 
-5.06226e-05      9.76102    -0.704764 
-1.76443e-05      5.53733      94.5547 
0.000376528      12.8423     -134.245 
3.47203e-05      11.2905      43.2791 
3.41326e-05      4.60176     -119.127 
0.000102410      10.6206     -135.229 
-1.74652e-05      9.38975      155.727 
4.79357e-05      10.0511      31.8236 
6.57654e-05      10.1254      129.793 
1.74046e-05      6.07597      7.75784 
-1.74020e-05      3.40075      79.1512 
-9.74940e-05      2.10270     -55.8506 
-1.73788e-05      4.20209     -9.87107 
-1.73401e-05      9.25291      94.8335 
3.42022e-05      7.52155     -119.291 
3.35298e-05      4.50629      14.6518 
0.000111421      10.0742      176.926 
-4.97575e-05      9.19220      126.596 
-1.72835e-05      8.57760     -130.931 
0.000395623      12.4850      132.535 
3.41548e-05      9.50704     -133.468 
-4.84037e-05      4.97060      55.9909 
4.99427e-05      11.4797     -50.5143 
9.79733e-05      8.88756      162.584 
6.54155e-05      10.1638     -98.9449 
-1.71855e-05      9.77313      48.1527 
0.000137080      10.9051      37.7744 
-1.71222e-05      11.7669     -32.7192 
-3.37057e-05      10.8168      19.4418 
5.07902e-05      13.9024     -135.525 
-9.79163e-05      13.4774     -134.820 
9.48794e-05      11.6384     -141.910 
4.88011e-05      11.8673      46.1606 
-1.70131e-05      11.3086      121.330 
1.69705e-05      6.48589     -171.846 
9.76949e-05      11.3053      43.2087 
0.000114060      13.2112     -41.0711 
7.89820e-05      10.4729     -75.9638 
-3.35193e-05      11.2602      133.704 
9.78581e-05      6.59178      32.4852 
1.69017e-05      10.6661      133.632 
3.35645e-05      12.5490      136.616 
0.000125154      8.54084      37.6723 
-1.69025e-05      11.3425     -44.5711 
0.000241235      11.8506     -141.236 
1.67953e-05      6.37904      104.344 
9.08360e-05      9.40041     -107.203 
9.59875e-05      14.0719      134.367 
-3.30463e-05      12.4842     -126.925 
-4.89643e-05      5.53582      94.3534 
6.18893e-05      8.70692      140.311 
-0.000109038      13.5487      44.6410 
3.30243e-05      9.37794      77.0580 
3.25842e-05      9.47760     -24.5663 
1.66480e-05      10.5289      64.4577 
0.000543962      13.9305     -135.522 
-9.30452e-05      9.76079    -0.585844 
-1.66138e-05      9.80662      42.9349 
1.65984e-05      10.7950      56.1034 
3.14404e-05      7.57088     -119.950 
0.000119264      12.4087     -48.2652 
-1.65569e-05      11.8888     -126.311 
-1.65239e-05      8.56382      108.097 
-3.26302e-05      8.24681     -13.4647 
-1.65084e-05      4.95930      56.1849 
4.68053e-05      10.0320     -28.4552 
0.000311882      12.8843     -132.234 
3.14249e-05      9.52047     -133.553 
0.000125790      10.4935      64.6059 
7.92503e-05      9.20335     -70.5797 
1.63504e-05      12.1224      38.0993 
1.63282e-05      6.01635      105.421 
3.18117e-05      6.79107     -20.5175 
1.63235e-05      11.5227     -137.531 
7.89326e-05      11.0951     -151.818 
-3.16864e-05      9.27148      94.7028 
0.000196897      12.1071      38.1562 
4.75148e-05      9.30727     -177.782 
6.29055e-05      7.56116     -119.822 
0.000165323      11.6545      123.662 
3.12082e-05      12.7130      128.996 
-4.71903e-05      6.43432     -48.7826 
-6.30764e-05      10.8359      19.4061 
0.000120225      10.5501     -162.114 
0.000103971      11.3678     -121.622 
1.60680e-05      11.5484      144.660 
-6.19867e-05      6.59236      152.732 
-1.60296e-05      6.50464     -166.307 
-0.000105355      11.2315      133.701 
6.04180e-05      9.38089     -89.1429 
6.25353e-05      13.2641     -138.667 
-3.16552e-05      11.7840     -32.6660 
-4.64967e-05      12.4998     -126.871 
3.14012e-05      7.37894      116.216 
-3.16777e-05      10.0907     -103.293 
0.000133139      9.37342      77.1787 
1.58858e-05      11.2909     -147.661 
0.000205595      11.8660      45.6149 
1.58455e-05      10.6947      133.635 
3.03600e-05      10.6890      145.983 
-3.13441e-05      8.14309     -84.0814 
7.59640e-05      7.46613     -123.863 
3.08117e-05      6.77210     -20.5776 
-3.08399e-05      5.83765     -71.6279 
1.57981e-05      13.9499     -133.374 
1.57257e-05      8.15770      66.1370 
3.06836e-05      4.10157     -171.870 
-0.000157705      10.2276      72.2377 
-4.45828e-05      9.23571     -97.3427 
-7.59609e-05      8.35441     -13.0027 
-1.56632e-05      10.7680     -109.983 
-0.000102450      10.1882      30.0359 
-4.54090e-05      13.6369     -133.693 
1.55689e-05      11.5826      45.0709 
8.61752e-05      11.7208     -49.7079 
8.23114e-05      12.5343      136.552 
1.55825e-05      7.39704     -76.0765 
-7.49997e-05      6.98081     -89.1808 
7.53834e-05      11.3200      43.1385 
3.07236e-05      13.4692      130.907 
0.000132206      10.9354      113.612 
-7.46545e-05      12.5115     -126.943 
-4.56649e-05      5.53432      94.1443 
0.000370521      11.5953      152.019 
-0.000473827      10.8424      19.5034 
-0.000145817      10.7750     -110.084 
0.000101225      13.1960     -41.1289 
-0.000172734      11.9280      37.3695 
-7.01786e-05      13.5072      45.7788 
3.05592e-05      6.58092      32.3364 
3.02674e-05      8.92115      32.5525 
-1.53351e-05      12.8399     -137.586 
-3.04962e-05      9.03057      155.535 
-5.84150e-05      6.27796     -163.530 
7.42198e-05      9.98660      16.4019 
-0.000100485      11.2920      121.381 
3.03869e-05      6.43183     -62.4005 
0.000283720      14.1321      133.681 
-2.96987e-05      9.76866     -20.9939 
3.02444e-05      9.49603     -24.5155 
2.99850e-05      9.83461      9.48173 
-0.000310977      10.5827     -20.6954 
0.000117662      11.5683      45.1419 
0.000211128      10.1438     -98.9627 
-0.000162916      13.5368      46.1387 
-3.01967e-05      9.43753     -5.10452 
0.000179403      10.4279     -40.4121 
-1.52076e-05      9.20429      126.697 
4.48598e-05      7.37811     -76.0401 
0.000141607      10.9211      37.7092 
4.42322e-05      12.6819     -40.5222 
0.000364394      10.7343      109.482 
1.51660e-05      10.4169      58.9025 
1.51314e-05      13.2775     -138.602 
1.51449e-05      8.16562      66.0118 
-8.59102e-05      11.5881     -41.6400 
0.000290780      12.0321     -141.073 
-1.50869e-05      10.0966      79.2705 
0.000170286      12.8982     -135.377 
-0.000347531      11.3091      154.884 
8.72613e-05      9.19173     -70.4201 
-0.000200254      9.14191     -1.25579 
8.51373e-05      11.3081     -147.716 
-5.55834e-05      9.29092      94.6929 
-2.94687e-05      10.4917      116.369 
-1.50368e-05      1.52240      3.02318 
2.94866e-05      11.0123      145.359 
-1.50221e-05      8.90243     -23.5702 
0.000212997      12.7101     -52.0307 
1.50157e-05      9.51354      107.370 
0.000168542      14.0861      134.426 
0.000458744      6.42281     -62.5548 
0.000183039      6.56381      32.4310 
0.000127677      13.2927     -138.660 
4.32961e-05      10.4064      58.9980 
2.94923e-05      11.8538      46.2286 
-5.74174e-05      6.42148     -48.9136 
0.000186187      10.5022      64.5060 
1.48904e-05      3.39869      112.483 
-0.000113191      13.5905     -134.702 
-2.93969e-05      6.52829      141.093 
-1.48836e-05      10.1097     -103.268 
1.48320e-05      7.52287      117.383 
0.000236105      11.1047     -151.726 
-1.48838e-05      8.12655     -85.3392 
0.000114463      12.0194     -128.852 
-1.48181e-05      9.75704     -21.1476 
0.000100319      6.40279      104.469 
2.93890e-05      9.56403      88.3230 
-2.90882e-05      8.37342     -12.9727 
2.94084e-05      7.71155     -70.2955 
-1.47719e-05      9.12336     -91.5082 
-0.000114753      10.9249      20.6905 
-1.47502e-05      4.52501     -40.5209 
-4.36490e-05      5.53289      93.9350 
-6.47118e-05      8.88455     -23.6205 
-0.000154263      9.49499     -77.2202 
-1.47060e-05      10.2098     -11.0680 
1.47015e-05      8.28255      116.686 
0.000153557      12.4217     -48.1980 
8.60188e-05      11.8610      41.3759 
-5.69313e-05      9.75876     -58.4952 
-8.48932e-05      10.2814      54.0234 
5.72984e-05      6.74602     -20.4770 
-4.33211e-05      10.1158      79.2911 
-8.49172e-05      13.2674      39.6164 
4.31903e-05      11.6350     -141.770 
1.46735e-05      8.86823      162.545 
4.27639e-05      11.0615     -155.427 
1.46248e-05      12.7007      128.928 
-4.28927e-05      8.89955     -17.6604 
-5.65454e-05      9.45771     -5.09359 
-5.71765e-05      10.2297     -11.0462 
-1.45711e-05      8.56990      108.221 
-1.45597e-05      11.3791     -124.834 
1.45798e-05      8.19168      65.9379 
-1.45413e-05      5.83130     -71.8169 
-1.45447e-05      1.52147      2.26124 
2.88016e-05      11.3205      42.9962 
2.86588e-05      7.59363      116.770 
-2.84419e-05      9.10260     -91.3841 
8.43591e-05      11.6820      123.692 
-4.24145e-05      7.10759      79.1314 
-5.66280e-05      5.53159      93.7334 
-0.000205574      13.4888      139.388 
-0.000179270      10.0287      154.612 
-7.12672e-05      13.5233      46.1983 
0.000154508      12.7393     -131.373 
0.000124596      7.38302     -75.8875 
-0.000274833      9.74053    -0.587063 
0.000152718      11.9564     -145.220 
4.27284e-05      13.6008     -138.458 
2.86516e-05      10.4919     -75.9896 
0.000132135      7.04364      173.645 
8.47998e-05      10.0053      16.3704 
6.96100e-05      10.8668      136.791 
-1.44257e-05      13.4487     -134.819 
4.25507e-05      9.12666     -147.528 
2.82181e-05      9.85386      9.46304 
5.56770e-05      10.1798      5.07054 
5.22152e-05      8.29999      116.625 
2.83692e-05      7.73063     -70.3462 
-1.43460e-05      12.0469      138.770 
0.000137659      13.9484      46.3951 
2.59475e-05      8.54720     -10.6549 
-0.000111948      9.75964     -79.6128 
-0.000191861      13.2222     -137.576 
1.43057e-05      10.3126     -66.8135 
4.19379e-05      4.49646      23.6004 
-5.59947e-05      4.47130     -40.0986 
-0.000110432      6.98056     -89.3410 
-8.27668e-05      9.43718     -15.3634 
-2.80956e-05      11.3907     -124.918 
1.42031e-05      10.4664     -154.412 
1.41874e-05      12.3408     -138.483 
-0.000234844      12.0487      138.901 
1.42006e-05      13.4545      130.961 
-4.21566e-05      9.63616      126.558 
-4.18582e-05      8.38882     -12.8118 
-1.41227e-05      4.19730      79.0135 
0.000123926      11.3343      43.0711 
-1.41168e-05      12.1553      57.2252 
0.000273807      11.5545      45.2105 
9.73281e-05      9.27629     -168.810 
0.000163901      7.47702     -123.987 
1.41324e-05      8.17387      65.8821 
-1.41390e-05      1.56698      104.023 
-0.000232390      10.6403     -21.5005 
-6.88085e-05      9.25563     -9.07743 
-8.23129e-05      13.6082     -133.691 
2.79149e-05      7.60243      116.901 
0.000122919      4.71167     -136.891 
-1.40898e-05      13.5093      46.2603 
8.30346e-05      12.6797     -40.6513 
4.18022e-05      3.68875      146.055 
-0.000232937      13.4739      139.334 
-2.75030e-05      10.3024      39.4080 
-0.000150284      13.9536      42.9079 
0.000231506      12.3256     -138.421 
-5.57301e-05      9.97301     -13.9233 
-0.000136497      10.7001      42.7264 
0.000190871      10.5686     -162.147 
-0.000163547      11.4235      47.4838 
-4.16447e-05      13.4820      46.5020 
-1.40189e-05      10.7721      27.8985 
-1.40405e-05      13.0907      51.3274 
0.000109193      10.4488     -154.366 
-1.39747e-05      10.0621      88.7479 
-2.76279e-05      13.0820     -47.7270 
6.85890e-05      10.7644      161.364 
-1.39861e-05      12.1383      57.1735 
8.23878e-05      10.8910      32.5502 
2.77257e-05      11.2295      39.2183 
-1.39838e-05      5.53030      93.5240 
-5.55112e-05      13.4953      46.3225 
5.46262e-05      9.39318      77.2061 
1.39419e-05      8.52893      37.5686 
0.000109032      4.69745     -136.728 
-1.39280e-05      12.5277     -126.887 
-2.75169e-05      10.8007     -110.145 
-6.89874e-05      13.9477     -46.2774 
2.57283e-05      6.68988      33.1642 
2.76774e-05      10.6253     -161.564 
-1.38923e-05      9.31112      94.6827 
1.38873e-05      9.91254      105.328 
1.38961e-05      10.5622      125.676 
-0.000176876      10.9178      20.5911 
4.12077e-05      11.7493     -49.6964 
-2.74138e-05      6.29667     -163.580 
-1.38584e-05      11.4739     -125.849 
9.57207e-05      11.7014     -144.108 
-0.000176267      11.5963     -127.502 
-4.14152e-05      12.5078      40.7206 
-9.60257e-05      12.3145     -34.0764 
0.000135999      11.8756      41.3136 
8.19335e-05      12.0321     -128.927 
-5.45578e-05      8.41455      169.731 
-6.82003e-05      10.2868      39.4797 
-2.75622e-05      9.61990      126.630 
0.000108978      6.39794      104.300 
-1.38007e-05      1.50055      1.51874 
0.000149612      10.9250      113.752 
-1.38320e-05      9.96834     -13.8145 
-1.37973e-05      12.1444      57.3056 
-0.000135827      10.8927     -142.310 
-5.44338e-05      11.6928      138.814 
9.49376e-05      13.1514     -131.299 
-4.10242e-05      13.5609     -132.491 
2.74367e-05      10.7393      123.451 
2.74981e-05      12.4713      132.466 
-1.37569e-05      10.2489     -11.0253 
-6.79756e-05      9.76937     -58.3939 
6.79539e-05      10.0248      16.3377 
0.000146380      3.70011      145.794 
-0.000203120      13.9337     -46.3376 
-1.37173e-05      4.18991      79.5474 
-2.72868e-05      5.52910      93.3144 
-1.36991e-05      4.85315     -49.6783 
2.73371e-05      7.59425      117.104 
2.72827e-05      6.72067     -20.3734 
1.37065e-05      13.5862     -138.403 
8.15781e-05      10.4759      64.5601 
-4.06437e-05      10.5008      116.468 
4.07380e-05      9.28010     -168.692 
-2.72358e-05      2.68216     -30.9638 
-0.000176019      12.5517      40.6700 
-1.37389e-05      9.78380     -155.741 
0.000175739      12.8281     -134.180 
-8.13172e-05      13.5465     -132.546 
-0.000148877      9.75615     -79.7255 
0.000108376      12.4539     -130.570 
-0.000162299      9.94866     -13.8423 
-0.000189411      13.4818      46.3824 
0.000108269      12.4569      132.527 
6.75598e-05      9.40620     -107.316 
-4.07304e-05      4.45828     -39.8994 
-1.36535e-05      7.62449      157.807 
-8.12865e-05      10.5772     -107.272 
1.36668e-05      13.9442     -135.464 
-5.43287e-05      7.42098      131.942 
-0.000135125      13.6049     -134.642 
-9.46097e-05      10.4104     -10.9657 
5.41893e-05      11.2010      39.2035 
2.71716e-05      9.70058      179.526 
2.71306e-05      11.0917     -117.028 
2.71754e-05      11.3506     -121.676 
1.36416e-05      9.86220      10.3976 
-0.000108243      2.88545     -46.1274 
0.000162006      12.7241     -131.433 
4.05707e-05      10.6445     -161.598 
-4.05862e-05      6.65073     -46.9522 
-1.36381e-05      12.5561     -126.906 
-8.11021e-05      10.0828      88.6354 
2.71270e-05      8.86218      162.670 
5.41310e-05      11.5406     -150.860 
-9.46240e-05      9.03213     -99.0436 
6.75793e-05      11.5240     -143.467 
-5.40287e-05      8.55816     -30.9414 
8.10288e-05      11.6708      123.609 
9.44948e-05      12.7386     -52.0149 
-8.10432e-05      8.88806     -8.93189 
8.11104e-05      12.6771     -40.7779 
1.35845e-05      8.20798      65.6844 
-5.39634e-05      9.63200      126.727 
9.44843e-05      10.0530     -23.1969 
8.10053e-05      2.55299      139.446 
-4.03867e-05      12.5363      40.7304 
-4.05259e-05      13.9536      137.092 
4.05374e-05      10.9019      32.6400 
-4.05145e-05      13.6532     -48.0877 
6.74612e-05      11.8307      39.7195 
2.71058e-05      13.9625      46.4503 
-0.000134842      12.3313     -34.0237 
5.39904e-05      14.0861      45.5741 
6.74260e-05      9.88139      10.3772 
-0.000107803      9.12240     -1.25848 
-1.35496e-05      9.10311     -91.5115 
-0.000121301      9.34736      10.8508 
1.35103e-05      9.23092     -31.6228 
5.39348e-05      13.9586     -135.523 
2.70313e-05      7.58549      117.310 
0.000121381      14.1181      133.622 
-2.69747e-05      5.54531      92.4818 
1.35167e-05      7.56723     -76.5535 
3.82241e-05      7.26017      53.2864 
2.63810e-05      6.67293      33.2594 
0.000148165      13.9765      46.3901 
0.000148151      11.0600     -157.796 
5.73196e-05      7.06303      173.662 
2.69191e-05      9.90978     -99.2904 
8.08497e-05      10.3832     -80.4655 
-2.69773e-05      7.60643      157.751 
0.000107695      10.4846      64.4601 
-5.39310e-05      12.0507      139.037 
-9.42145e-05      10.5645     -20.7328 
-1.35179e-05      9.23637     -9.09653 
-1.34781e-05      9.31273      94.8024 
2.68991e-05      11.3400     -121.589 
4.04009e-05      12.8838     -135.314 
-5.38983e-05      12.5017      35.1639 
1.35106e-05      10.7505      123.541 
-4.03515e-05      13.4927      45.7188 
-5.38275e-05      13.3409     -133.482 
1.34808e-05      6.34807     -87.1136 
-2.69259e-05      12.5717     -126.852 
-1.34936e-05      11.9564      37.3877 
1.34661e-05      11.0354     -124.814 
-2.69299e-05      10.2122     -2.80501 
5.37717e-05      10.8739      32.6077 
-2.69242e-05      10.6355      44.3911 
-6.72656e-05      12.4749      141.182 
6.73308e-05      11.5925      35.3083 
-1.34915e-05      13.3122     -133.479 
4.03807e-05      11.9397     -145.164 
4.03468e-05      6.39297      104.124 
-2.69349e-05      3.26176      66.8914 
-2.69202e-05      7.13119      79.0081 
2.68861e-05      11.8658     -141.295 
2.69343e-05      9.68033      179.525 
4.04031e-05      11.6856     -144.052 
-2.68549e-05      7.40745      131.826 
2.68690e-05      11.3491      43.0012 
-2.69230e-05      10.0804      89.4327 
2.70851e-05      8.64022      116.091 
-1.34506e-05      9.23947     -9.21599 
1.34406e-05      10.8949      136.783 
-5.37904e-05      12.0660      139.100 
-2.56523e-05      4.44275     -40.0670 
-1.34498e-05      13.5746     -132.554 
-1.34711e-05      10.1163      30.0111 
-1.34329e-05      9.45672     -15.3309 
-1.34385e-05      7.94094      166.452 
-4.03461e-05      9.73695     -79.7050 
1.34651e-05      9.29617     -168.834 
-1.34260e-05      9.33292      94.7920 
2.68422e-05      11.5505     -150.772 
-2.68662e-05      10.0833      88.5245 
1.33994e-05      11.5403     -143.527 
1.34482e-05      6.34913     -86.9310 
2.69090e-05      10.7392     -161.766 
-2.69096e-05      10.8808     -142.391 
-1.34306e-05      11.7963     -30.3493 
-1.34646e-05      10.6016     -107.341 
1.34480e-05      7.59447      117.441 
-1.34453e-05      11.4481      118.715 
-1.34314e-05      9.45599     -4.97585 
1.34202e-05      7.32169     -33.8643 
-1.34408e-05      11.2814      121.293 
1.34388e-05      10.9627      121.572 
1.34351e-05      10.7411      109.584 
1.34080e-05      12.4412     -130.502 
-1.34459e-05      9.13475     -58.1548 
-1.34457e-05      10.6497      44.4690 
-1.34472e-05      13.9398      42.8469 
1.34376e-05      12.6903     -40.8471 
-0.000322625      12.7946     -130.564 
-0.000126594      10.1626     -88.7603 
-6.61884e-05      8.41096      169.867 
7.25215e-05      10.2581     -66.6831 
4.15016e-05      8.67595      116.268 
0.000154021      9.87431      33.0162 
-6.06000e-05      8.86166     -17.7384 
5.91018e-05      8.66733      116.152 
6.87442e-05      10.2595     -153.484 
-5.88349e-05      10.1428     -88.6434 
8.22085e-05      13.8316      42.3615 
1.53572e-05      8.64915      116.212 
0.000147522      10.1297     -114.743 
0.000120982      9.75139      66.1669 
-8.18428e-05      8.43091      169.891 
0.000174567      9.26717     -136.660 
0.000107625      10.4755      58.5872 
6.59800e-05      13.3582     -136.942 
0.000104623      10.0355      176.802 
-6.65733e-05      8.79676     -44.4470 
-0.000103165      11.0523     -148.467 
4.14326e-05      7.30550     -33.9496 
5.46203e-05      8.56711     -10.6298 
0.000141304      10.3494     -17.3156 
9.05120e-05      12.8644      49.3501 
1.41805e-05      10.2413     -153.433 
4.02781e-05      8.73756      140.478 
-5.34176e-05      10.9391      153.155 
5.25837e-05      10.4131     -40.4817 
-8.89727e-05      11.6794     -51.8151 
-9.22195e-05      11.8401     -32.3757 
-2.69952e-05      4.58166     -40.5697 
9.04518e-05      10.2501     -153.336 
6.36560e-05      5.62486     -146.310 
2.59996e-05      6.54672      32.5261 
0.000125442      11.6321      149.862 
1.37122e-05      12.9968      135.313 
-2.68538e-05      10.0890      26.3611 
1.35920e-05      6.35079      50.4943 
3.94237e-05      6.42090     -134.749 
6.35343e-05      11.8267      59.3997 
7.52938e-05      7.60536     -119.800 
-5.02388e-05      9.31632      79.4884 
3.82975e-05      11.9930     -44.5944 
1.33810e-05      13.4207      135.301 
0.000136526      11.5851      144.911 
5.01385e-05      12.1484      47.8039 
-5.04747e-05      12.9823      142.069 
1.33272e-05      14.2272      44.7714 
4.96493e-05      10.1506      68.7445 
2.62820e-05      9.15852     -71.0128 
-3.77823e-05      9.81728     -72.4500 
-2.53601e-05      7.98998      103.164 
-2.50735e-05      11.5820      47.7992 
-0.000123338      10.8405     -110.406 
4.94802e-05      13.0107      135.374 
-6.18416e-05      10.2214     -86.2959 
0.000123195      14.2128      44.8289 
4.99302e-05      13.3434     -136.882 
2.55359e-05      3.39105      103.292 
7.40829e-05      9.60995     -6.93357 
-4.88992e-05      10.2012      65.1919 
-2.48691e-05      11.9813     -146.231 
-2.56783e-05      11.5670      47.7318 
6.09270e-05      9.60574     -175.820 
2.53861e-05      13.4069      135.243 
3.70621e-05      6.41350     -62.7154 
-3.73058e-05      9.74150     -58.4330 
-2.53540e-05      13.0819     -134.568 
2.49152e-05      4.68272     -136.558 
3.75277e-05      9.89130      32.9523 
1.27958e-05      9.52387     -83.3672 
3.69098e-05      7.99112      79.6186 
-3.68574e-05      6.30243     -163.403 
-4.80297e-05      11.2680      121.576 
3.63135e-05      10.2761     -66.7261 
-2.44222e-05      2.66481     -31.1879 
3.63300e-05      9.19021     -70.8135 
4.88013e-05      10.7503      133.795 
3.60964e-05      7.27780     -33.9113 
-1.25524e-05      8.57626      108.349 
-2.46024e-05      10.1631     -88.6461 
1.25299e-05      5.64110     -146.420 
4.79210e-05      12.5520     -36.5774 
1.24637e-05      6.34619     -87.4722 
-7.16753e-05      9.85162     -51.5937 
-1.24810e-05      14.1872      43.9135 
-2.41624e-05      8.16704      154.311 
4.79445e-05      3.41672      112.358 
-2.44013e-05      7.07260     -31.3526 
-1.23972e-05      4.21206     -175.647 
4.82317e-05      11.8421     -130.686 
4.78987e-05      10.4653      58.6783 
-1.23398e-05      5.52595      92.6930 
-2.39652e-05      13.6339     -42.3254 
4.74355e-05      9.53348      82.8878 
-3.56166e-05      8.82541     -44.4488 
-5.93761e-05      11.8237     -32.4263 
-2.39040e-05      14.2012      43.9724 
-2.39252e-05      10.0709      26.4123 
2.38872e-05      6.44902     -134.745 
-1.21567e-05      2.10766     -56.6041 
1.21291e-05      9.12763      31.2869 
-3.55395e-05      13.0963     -134.506 
-4.72610e-05      9.53890      61.7133 
2.35450e-05      6.32771      28.5101 
-1.20723e-05      10.5021      107.056 
-1.20781e-05      10.6063     -144.360 
1.19798e-05      10.5952     -114.775 
-1.19790e-05      5.54447      92.2726 
1.19639e-05      9.98246     -63.0748 
-2.36253e-05      9.62792      126.896 
3.50500e-05      10.5855      47.1430 
-1.19169e-05      2.87088     -45.8472 
3.51022e-05      9.28192     -136.746 
2.34682e-05      6.08243      152.594 
2.35292e-05      8.70481     -85.6494 
-3.50797e-05      12.3157     -128.340 
1.18436e-05      12.0072     -44.6633 
1.18009e-05      8.54440      37.4888 
-2.33035e-05      6.61037      152.812 
-1.17444e-05      4.21365     -175.373 
-1.17273e-05      3.25386      67.2195 
1.17214e-05      6.32509     -87.6474 
1.16854e-05      12.0950      38.0836 
-1.16708e-05      10.5078      107.158 
1.16855e-05      4.46782     -67.9109 
1.16252e-05      9.14431      31.2234 
-1.16083e-05      10.2021      72.3114 
1.15919e-05      9.61242     -7.05345 
1.15997e-05      7.48157     -91.2241 
-1.15697e-05      7.59670      28.1168 
-1.15581e-05      6.25417      43.1866 
-1.15266e-05      5.38046     -49.9786 
1.15138e-05      11.9945     -128.704 
1.14884e-05      12.9319     -139.955 
-1.14615e-05      9.83588     -72.4843 
1.14460e-05      10.9342     -54.3051 
-1.14508e-05      10.1821     -88.7627 
! Tentative model.
! Flux (Jy) Radius (mas)  Theta (deg)  Major FWHM (mas)  Axial ratio   Phi (deg) T \
! Freq (Hz)     SpecIndex
1.23971e-05      7.26003      53.2879 
