! Center RA: 12 21 31.69052,  Dec: +28 13 58.50011 (2000.0)
! Established model.
! Flux (Jy) Radius (mas)  Theta (deg)  Major FWHM (mas)  Axial ratio   Phi (deg) T \
! Freq (Hz)     SpecIndex
 0.0808660    0.0282843     -135.000 
 0.0219271    0.0447214     -116.565 
0.00180058    0.0824621      104.036 
0.00829755     0.101980      101.310 
 0.0243596    0.0632456     -108.435 
 0.0312277     0.121655      99.4623 
 0.0281374    0.0824621     -104.036 
 0.0100834     0.141421      98.1301 
0.00225622    0.0894427     -116.565 
0.00861317     0.107703     -111.801 
0.00339395     0.120000      90.0000 
0.00209606    0.0600000      90.0000 
0.000506529    0.0400000      90.0000 
0.000497810    0.0200000      90.0000 
0.00316200     0.145602      105.945 
 0.0119225     0.164924      104.036 
0.000585836     0.100000      90.0000 
0.000872576     0.189737      108.435 
0.00602933    0.0824621      75.9638 
0.00289932     0.208806      106.699 
0.00292674     0.234094      109.983 
0.00351827     0.126491     -108.435 
0.00176153     0.252982      108.435 
0.000388550     0.101980      78.6901 
0.00115533     0.152315     -113.199 
0.00495470    0.0894427      63.4349 
0.00342265     0.260000      112.620 
0.00309310     0.145602     -105.945 
0.00313992     0.278568      111.038 
0.000790430     0.170880     -110.556 
0.00385483     0.107703      68.1986 
0.00496136     0.164924     -104.036 
0.00333039     0.297321      109.654 
0.00545044     0.189737     -108.435 
0.00311920     0.116619      59.0362 
0.000523159     0.304631      113.199 
0.000821186     0.316228      108.435 
0.00207583     0.323110      111.801 
0.000293766     0.460435      124.380 
0.000521622     0.250599      118.610 
0.00114802     0.477074      123.024 
0.000610480     0.100000      53.1301 
0.000309323     0.798499      112.068 
4.41707e-05     0.184391     -102.529 
4.40769e-05     0.335261      107.354 
! Tentative model.
! Flux (Jy) Radius (mas)  Theta (deg)  Major FWHM (mas)  Axial ratio   Phi (deg) T \
! Freq (Hz)     SpecIndex
0.000805952     0.349285      113.629 
0.000545948     0.126491     -108.435 
0.00150082     0.969330      111.801 
0.000191977     0.375766      115.201 
4.83842e-05    0.0600000      90.0000 
0.000673721    0.0632456      71.5651 
4.68758e-05     0.393954      113.962 
0.000137215     0.121655     -99.4623 
4.64813e-05     0.402492      116.565 
0.000181750     0.420476      115.346 
0.000499839     0.145602     -105.945 
4.44499e-05     0.429418      117.759 
0.000339530     0.447214      116.565 
0.000672297     0.950789      112.249 
0.000124230     0.456508      118.811 
0.000565130     0.474131      117.646 
0.000324839     0.141421     -98.1301 
3.73338e-05    0.0824621      75.9638 
0.000532237    0.0894427      63.4349 
0.000710901     0.501199      118.610 
0.00106314     0.323110      111.801 
0.000700782     0.769675      114.567 
0.000100234     0.164924     -104.036 
0.000658365     0.161245     -97.1250 
3.11961e-05     0.987927      111.371 
0.000321131     0.995389      112.443 
8.67156e-05     0.483735      119.745 
0.000472236     0.100000      53.1301 
0.000373538     0.751532      115.201 
0.000380456      1.01390      112.011 
4.89845e-05     0.181108     -96.3402 
0.000408220     0.511077      120.579 
0.000249861     0.180000     -90.0000 
4.62889e-05      1.03247      111.595 
0.000112788     0.113137      45.0000 
0.000217816      1.04000      112.620 
0.000186121     0.128062      51.3402 
0.000454043     0.778203      115.907 
0.000201592     0.181108     -83.6598 
0.000120169      1.05849      112.203 
0.000377974     0.141421      45.0000 
9.46210e-05      1.07703      111.801 
0.000146054     0.184391     -77.4712 
0.000402189     0.760263      116.565 
8.95973e-05     0.504777      123.690 
7.23259e-05      1.09563      111.413 
5.21349e-05      1.11427      111.038 
1.74738e-05      1.00319      113.499 
0.000149854     0.189737     -71.5651 
0.000175183     0.516140      125.538 
3.36256e-05     0.984886      113.962 
6.64954e-05      1.13296      110.674 
0.000264521     0.733485      115.866 
0.000147889     0.966644      114.444 
7.88352e-05      1.15169      110.323 
0.000120935     0.196977     -66.0375 
1.54140e-05      3.00533      116.906 
1.52791e-05     0.189737     -108.435 
7.49080e-05      3.01423      116.395 
0.000184567      1.17047      109.983 
0.000348709     0.156205      39.8056 
5.77134e-05     0.304631      113.199 
7.11773e-05     0.528015      127.304 
7.05828e-05      2.87562      113.356 
0.000198062      3.01443      117.245 
2.81802e-05     0.196977     -113.962 
6.90548e-05     0.205913     -60.9454 
2.70970e-05     0.316228      108.435 
1.37381e-05     0.512250      128.660 
2.71476e-05      1.14158      93.0128 
0.000192040     0.297321      109.654 
0.000151161     0.524976      130.365 
0.000148127      2.86775      112.989 
0.000157432     0.223607     -63.4349 
2.62930e-05      1.08296      85.7636 
7.55408e-05     0.948472      114.944 
4.88923e-05     0.205913     -119.055 
8.86103e-05      1.18929      109.654 
0.000207320      1.08462      84.7099 
7.05010e-05     0.607289      107.241 
0.000148382      1.17745      110.898 
0.000181951      3.03223      117.072 
2.33820e-05     0.993177      115.017 
0.000128734     0.523450      133.452 
9.58581e-05     0.975090      115.514 
0.000659718      1.06677      83.5412 
0.000135848      2.86000      112.620 
0.000377479     0.184391      40.6013 
1.10002e-05     0.626418      106.699 
5.13647e-05     0.216333     -123.690 
6.29114e-05     0.601664      105.422 
0.000145264     0.233238     -59.0362 
3.17849e-05      1.20814      109.335 
0.000108421      2.84155      112.775 
0.000262402      3.75926      95.8016 
5.01214e-05      1.16619      112.166 
3.99017e-05     0.278568      111.038 
2.00669e-05      1.22703      109.026 
0.000209243      1.00180      116.053 
2.90674e-05     0.620967      104.931 
2.91379e-05     0.537401      135.000 
9.75157e-06      1.25873      107.571 
0.000120901      2.97725      120.700 
9.73062e-05     0.268328      116.565 
1.90531e-05      1.27781      107.301 
9.79308e-05     0.523450      136.548 
1.86160e-05      1.13719      113.860 
0.000116762      3.04138      117.408 
7.93643e-05     0.596657      103.570 
3.64628e-05      1.29692      107.038 
7.85087e-05      2.65548      112.122 
3.47030e-05     0.244131     -124.992 
0.000407899      3.60472      105.116 
0.000525697      1.75647      97.8533 
1.77207e-05      1.14543      114.775 
7.58278e-05      1.31605      106.783 
1.71225e-05      1.21078      120.801 
8.18338e-05      2.38202      113.767 
8.16688e-05      2.35567      113.518 
0.000115433      1.22115      121.608 
8.08313e-05     0.244131     -55.0080 
8.11437e-05     0.256125     -128.660 
9.80492e-05     0.592284      101.689 
6.78697e-05     0.538145      138.013 
8.04661e-06      2.63697      112.286 
0.000118585     0.250599      118.610 
5.34512e-05      2.30217      108.750 
7.51125e-05      1.32966      105.709 
0.000252688      2.96007      120.897 
0.000540045      3.75729      95.4982 
3.82268e-05      2.87847      112.467 
1.51544e-05      2.53842      106.007 
2.19760e-05      2.66308      112.521 
0.000183089     0.200000      36.8699 
2.20218e-05      2.87089      112.098 
5.59993e-05      1.33522      106.535 
8.14958e-05      2.53298      105.573 
5.50729e-05      2.28980      109.385 
2.13323e-05      2.88943      111.949 
2.74496e-05      2.90799      111.801 
3.38942e-05      1.23175      122.400 
2.69447e-05     0.524976      139.635 
2.00824e-05      2.68924      112.751 
9.37939e-05      2.39015      114.206 
7.02238e-05     0.588558      99.7824 
1.33832e-05      1.08665      83.6598 
1.32741e-05      2.92657      111.656 
0.000156710     0.983870      116.565 
0.000225274      1.34893      105.479 
4.90595e-05      2.73386      112.813 
0.000103002     0.269072     -131.987 
6.53330e-06      2.95655      111.010 
0.000150538      1.24868      121.908 
1.92189e-05      2.29582      108.277 
9.78359e-05     0.540370      141.009 
4.98055e-05      2.96816      110.511 
0.000121616      2.28324      108.911 
8.10488e-05     0.254558     -45.0000 
0.000102649      3.05064      117.741 
5.78893e-05     0.212603      41.1859 
4.58056e-05      2.98000      110.016 
2.29856e-05     0.233238      120.964 
9.13035e-05      2.77849      112.874 
5.58828e-05     0.565685      98.1301 
5.71289e-06      2.36373      113.962 
1.08721e-05      2.71544      112.977 
7.70035e-05      2.39842      114.642 
0.000398861     0.228035      37.8750 
0.000153012      2.76007      113.035 
0.000345043      3.01091      109.398 
2.13550e-05     0.244131      124.992 
0.000101510      2.54700      105.018 
6.84151e-05      3.36868      111.233 
6.33291e-05     0.563205      96.1155 
6.42302e-05     0.228035      127.875 
1.97105e-05     0.528015      142.696 
0.000255774     0.282843     -135.000 
2.35398e-05      2.28963      107.802 
7.35065e-05     0.544059      143.973 
0.000289677      1.30000      120.510 
5.23936e-05      2.40682      115.074 
6.64078e-05     0.269072     -41.9872 
9.49915e-05      2.27684      108.435 
7.20191e-05      1.06471      84.6107 
0.000225810      3.37597      111.549 
1.76957e-05     0.541479      94.2364 
9.40387e-05      2.93626      121.633 
8.38686e-05     0.966023      117.096 
8.59790e-06      2.67866      113.311 
2.44920e-05      1.18152      92.9108 
8.48947e-06     0.561427      94.0856 
6.62064e-05     0.540370      92.1211 
0.000194254      1.36821      105.255 
8.22231e-06      2.44205      115.726 
2.34133e-05      2.45080      116.147 
3.07524e-05     0.226274      135.000 
1.44225e-05      2.66030      113.481 
0.000106609      2.48652      116.771 
0.000123164      3.06000      118.072 
5.32203e-05     0.532541      145.713 
2.54950e-05      2.28359      107.324 
0.000107106      1.20150      92.8624 
0.000147923      1.75932      98.4986 
3.70051e-05      3.59071      105.507 
0.000127038     0.288444     -33.6901 
0.000165669     0.244131      145.008 
5.83727e-05      2.41537      115.504 
3.57207e-06      2.80471      113.091 
2.03361e-05      2.54189      104.583 
3.87188e-05     0.540000      90.0000 
0.000211273      2.29957      103.069 
0.000110938     0.975295      118.142 
3.47969e-06      2.26433      109.075 
2.93678e-05      2.25894      110.200 
6.90083e-05     0.560357      92.0454 
2.01059e-05      2.38025      114.842 
0.000127260     0.549181      146.889 
2.60697e-05      2.68663      113.703 
2.62028e-05      2.56125      104.470 
5.96953e-05      2.83478      122.905 
0.000102794      3.58541      105.199 
4.89417e-05      2.25442      111.329 
2.80245e-06     0.244131      34.9920 
2.04075e-05      2.24722      110.854 
0.000142273     0.272029      36.0274 
3.67726e-05      2.66833      113.875 
2.65083e-05     0.540370      87.8789 
6.49074e-05      2.55633      104.036 
9.18358e-05      3.77534      95.1669 
0.000106938      1.77910      98.4034 
8.64570e-06      2.49560      117.181 
7.74863e-05      3.38337      111.864 
2.38697e-05      2.23580      111.516 
2.83795e-05     0.560000      90.0000 
3.32438e-05      1.22066      91.8779 
8.30762e-06      3.00433      109.038 
2.64881e-05     0.957706      118.706 
5.46006e-05      2.13551      112.001 
-0.000222459    0.0565685     -45.0000 
3.93841e-05     0.796241      115.278 
2.97610e-05      3.06946      118.402 
1.14197e-05      2.65006      114.050 
7.80843e-06     0.284253     -39.2894 
1.58892e-05      2.81801      123.126 
9.17090e-05     0.269072     -48.0128 
-9.31748e-05     0.917823      78.6901 
1.08397e-05     0.581378      93.9452 
5.66578e-05     0.233238      149.036 
5.28984e-06     0.560357      87.9546 
8.59891e-06      2.63181      114.228 
1.33957e-05      2.50440      116.565 
1.17439e-05      3.07766      117.897 
9.97771e-06     0.580345      91.9749 
1.97809e-05      1.06921      82.4762 
4.95049e-06     0.561427      85.9144 
4.90324e-06      2.57573      103.928 
4.88794e-06      1.34729      84.0355 
3.22085e-06      3.08707      118.225 
1.60618e-06      2.61358      114.408 
