! Center RA: 12 21 31.69052,  Dec: +28 13 58.50011 (2000.0)
! Established model.
! Flux (Jy) Radius (mas)  Theta (deg)  Major FWHM (mas)  Axial ratio   Phi (deg) T \
! Freq (Hz)     SpecIndex
 0.0241437    0.0202604      90.0000 
 0.0190743    0.0202604      0.00000 
 0.0150319    0.0286526      45.0000 
0.00564848      0.00000      0.00000 
0.00122517     0.279894      90.0000 
 0.0118756     0.259634      90.0000 
0.00236608    0.0446338      63.0042 
0.00708196    0.0720098      56.4755 
0.000417719     0.107434      68.2729 
0.00225284    0.0896014      63.6495 
0.00878776     0.280627      94.1402 
0.00232915    0.0202604      180.000 
0.00991088     0.116465      58.9729 
0.000583293     0.100252      53.2159 
0.00104429     0.300838      93.8616 
0.00309797    0.0446338     -153.004 
0.000250418     0.302778      97.5477 
0.00293114     0.322129      97.0919 
0.00307092    0.0562440     -135.000 
0.00224147     0.345185      100.015 
0.000879981     0.113549      45.0000 
0.00129405     0.369026      102.567 
0.00299399     0.128090      51.1829 
0.000304636    0.0446338     -116.996 
0.00116176     0.388092      101.940 
0.00138349    0.0720098     -123.524 
0.000271923     0.407936      101.351 
0.00288639    0.0633577     -108.650 
0.000133799     0.463888      97.4354 
0.000719232     0.392593      104.727 
0.000702304     0.483985      97.1250 
0.000505484     0.373757      105.487 
0.000594676     0.526180      98.7772 
0.000370446     0.592344      101.694 
0.00220302     0.128090      38.8171 
0.000475004     0.616492      103.157 
0.000227876     0.640096      104.460 
0.000460364     0.506166      99.1272 
0.000443057     0.664933      105.714 
0.000111631     0.412220      104.011 
0.000714445     0.486913      99.4914 
0.000109014     0.398226      107.547 
0.000987608     0.690066      106.878 
0.000697981     0.417588      106.709 
0.000561681     0.714519      107.921 
0.00114570     0.144435      33.7726 
0.000250912    0.0600310     -90.0000 
0.000669854     0.423858      109.333 
0.000199472    0.0633577     -71.3505 
0.000689563     0.740145      108.931 
0.000262336     0.100252     -143.216 
0.000436046    0.0720098     -56.4755 
0.000268000     0.113549     -135.000 
8.16660e-05     0.746703      110.347 
0.000691600     0.772836      111.233 
0.000388287     0.503350      96.8496 
0.000157523     0.152624      23.1616 
0.000755039    0.0848966     -45.0000 
0.000304578     0.128090     -141.183 
0.000852202     0.781960      94.4029 
0.000299788     0.134233     -153.435 
0.000227766     0.161670      29.7779 
0.000349485     0.430710      111.783 
0.000579300     0.500328      73.7123 
0.000550166     0.170734      20.5855 
0.000214030     0.798447      112.081 
0.000470552     0.805984      113.367 
0.000331850     0.506146      71.5919 
0.000329940     0.152624     -156.838 
0.000269283     0.100252     -36.7841 
6.50266e-05     0.803932      95.7319 
6.40231e-05     0.832685      114.094 
6.35260e-05     0.449587      110.825 
7.99544e-05     0.521537      94.3734 
0.000680827     0.783776      95.8798 
0.000156745     0.520413      92.2312 
0.000227645     0.520018      90.0000 
0.000287733     0.520413      87.7688 
0.000140843     0.503350      83.1504 
0.000785938     0.786014      97.2946 
0.000342591     0.178866      63.3275 
0.000205089     0.116465     -31.0271 
0.000452432     0.506166      80.8728 
0.00168230     0.134233     -26.5651 
6.50210e-05     0.538618      105.101 
0.000310338     0.184676      49.4492 
0.000250432     0.788842      98.7544 
0.000309530     0.913675      113.217 
0.000244961     0.544027      107.085 
0.000653121      1.17370      113.074 
0.000353631     0.509625      78.7066 
0.000289391     0.921540      114.332 
0.000115368     0.184676      40.5508 
0.000274988     0.550320      109.102 
0.000114360     0.304558      113.217 
0.000836805      1.19237      112.692 
5.57511e-05     0.188432      31.9812 
0.000268027     0.764371      96.0296 
0.000318431     0.340058      118.035 
0.000216211     0.948403      114.943 
0.000160727     0.205897      28.9938 
0.000623894     0.957123      116.043 
0.000347247     0.493986      68.6188 
0.000248141     0.215843      21.8384 
0.000385095     0.762509      94.5155 
0.000286140     0.557279      111.071 
0.000194861     0.366905      119.396 
0.000347399     0.128090     -38.8171 
9.71601e-05     0.152624     -23.1616 
0.000964453      1.20033      113.584 
0.00135144     0.144435     -33.7726 
0.000516898     0.491629      63.4349 
0.000225733     0.227911      15.2717 
0.000888287     0.377263      122.078 
0.000531503     0.761182      92.9950 
8.58871e-05     0.569504      108.435 
0.000371711     0.965848      117.083 
0.000125618     0.223431      10.2532 
0.000224933     0.576231      110.346 
0.000442261     0.243395      9.40424 
0.00112444     0.365154     -99.4623 
0.000868528      1.21892      113.203 
0.000152586     0.983930      116.546 
0.000660655     0.493955      58.2899 
0.000506454     0.760412      91.5268 
0.000625505     0.993150      117.591 
0.000143284      3.09905      108.435 
0.000297564      3.09270      108.079 
0.000360063     0.404832      122.895 
6.40748e-05     0.975239      118.143 
0.000325574     0.262662      8.70883 
0.000200881     0.581411      93.9223 
3.12738e-05     0.588045      107.834 
0.000263287      3.07345      108.196 
0.000481655     0.760142      90.0000 
0.000232058      3.29535      108.769 
0.000480046     0.500058      53.1129 
0.000588834     0.416183      125.237 
0.000256896      1.22674      114.041 
2.96313e-05     0.594563      109.693 
0.000539154      1.00269      118.617 
0.000166341     0.583302      112.144 
0.000619482      1.65502      134.504 
2.79471e-05     0.580403      92.0005 
0.000679875      3.32083      108.975 
0.000184677      3.83229      101.132 
0.000182370      1.20827      114.432 
2.71265e-05      3.06741      107.850 
0.000416548      3.04885      107.962 
0.000347745     0.601626      93.7903 
7.56301e-05     0.282706      8.08709 
5.12214e-05      1.77181      110.477 
2.50841e-05     0.601418      111.443 
0.000262666      1.79791      110.856 
0.000166547      1.18985      114.836 
0.00134335      3.82857      100.845 
7.21192e-05     0.603304      95.7106 
2.41878e-05     0.260423      4.46202 
7.08408e-05      1.33443      109.240 
2.35989e-05     0.280627      4.14019 
0.000353412     0.369026     -102.567 
9.18027e-05      1.01195      127.771 
0.000170149     0.591236      113.962 
6.83297e-05     0.259634      0.00000 
0.000230783     0.760412      88.4732 
0.000195800      1.35358      108.957 
8.89461e-05     0.496341      49.9061 
0.000307791      1.02448      128.666 
0.000685909      3.02335      107.715 
0.000556551     0.994616      120.163 
0.000444308     0.240977     -4.82291 
0.000351413      1.80523      111.456 
0.000286574     0.484006      51.6731 
8.20663e-05      1.79712      124.573 
0.000215488      1.37204      108.693 
9.10743e-05     0.100252     -126.784 
0.000465636     0.572781      114.786 
1.96803e-05      1.21679      115.301 
1.96413e-05     0.113549     -45.0000 
1.91527e-05     0.780666      87.0798 
0.000255359     0.223431     -10.2532 
0.000341291      1.80869      125.101 
1.88066e-05      2.58184      110.394 
0.000283450      2.57510      109.987 
0.000221377      1.03726      129.540 
0.000121701     0.621094      93.6713 
0.000558430      1.36592      107.917 
0.000150375     0.761182      87.0050 
1.82792e-05      1.34736      108.173 
0.000400644      1.64088      133.999 
0.000326907      2.29298      113.654 
8.36761e-05     0.170734     -159.414 
0.000145892      1.81245      112.030 
4.99894e-05     0.427737      127.372 
0.000323593      3.34589      109.195 
0.000334343      4.42743      111.464 
8.01016e-05     0.481580      48.4109 
0.000152103     0.622720      95.5320 
0.000314388      4.42006      111.220 
0.000610957     0.349279     -103.290 
0.000539594      2.39611      123.426 
1.53274e-05      1.23513      114.899 
8.88295e-05     0.466621      46.7594 
8.26059e-05      3.07012      114.228 
0.000141941      1.04979      130.361 
0.000532741      3.00406      107.833 
0.000109470     0.223431     -169.747 
0.000328474      2.25864      112.936 
0.000106407     0.781960      85.5971 
4.23177e-05      1.25286      114.523 
0.000375180     0.642889      95.3579 
8.16172e-05     0.452074      45.0000 
4.97335e-05     0.424884      131.205 
2.57080e-05      1.24458      113.675 
2.58124e-05      1.79080      110.250 
6.37277e-05      4.39526      108.020 
0.000401319      1.06302      131.194 
0.000316891     0.438496      43.1971 
7.39322e-05      2.41304      123.161 
6.04808e-05      1.28401      108.149 
3.77350e-05      1.38521      107.660 
1.28031e-05      1.83581      113.768 
6.06203e-05      2.41756      128.965 
1.24592e-05      1.84407      114.344 
0.000138812     0.260423     -4.46202 
1.23572e-05      1.85220      114.893 
4.85318e-05      4.41453      107.939 
3.49481e-05     0.189835     -161.565 
0.000135650      3.09693      114.416 
1.22299e-05      1.77743      109.047 
1.22067e-05      1.27132      109.301 
3.61547e-05      1.86082      115.459 
6.95970e-05      3.08861      114.074 
9.21493e-05      1.41049      108.165 
0.000238258      1.08285      78.2852 
0.000249512      1.26477      108.435 
2.36745e-05      2.54240      109.285 
8.78945e-05     0.645096      97.1498 
2.33954e-05      1.78343      107.634 
0.000109358      1.00495      121.162 
0.000213800      4.40856      107.698 
3.39072e-05      3.37171      109.407 
6.82185e-05      1.86962      116.020 
0.000585249      5.25691      107.263 
6.19662e-05     0.243395     -170.596 
0.000613244      3.82481      100.547 
0.000196399      2.42988      129.323 
3.11786e-05     0.624998      97.3810 
8.40284e-05      2.53603      108.869 
4.35958e-05      1.77740      107.012 
0.000182995     0.424483      135.000 
0.000181659      1.87826      116.555 
0.000119421      3.11539      114.262 
8.02841e-05      1.42904      107.921 
5.81367e-05      4.43719      117.375 
3.92665e-05      1.77158      106.385 
1.02675e-05      3.35261      109.522 
1.01631e-05    0.0828082     -104.162 
0.000211964      5.70716      101.113 
0.000186370      2.99792      107.464 
3.88208e-05      1.01558      122.140 
0.000100698      4.55956      104.224 
1.86748e-05      3.37824      109.719 
9.34741e-05      4.45302      111.615 
0.000127968     0.998483      122.759 
4.51945e-05      4.40244      107.447 
0.000102889      3.72558      138.266 
9.24597e-06     0.854760      79.2228 
0.000136153      1.88740      117.105 
0.000241564      1.40453      107.409 
5.94898e-05      2.52955      108.435 
0.000281317     0.438496      46.8029 
3.37161e-05    0.0802914     -90.0000 
9.06748e-06     0.858779      77.8948 
2.60865e-05      1.76617      105.778 
4.90963e-05     0.262662     -171.291 
0.000107392      4.46349      117.483 
2.53522e-05     0.863255      76.5798 
6.56133e-05      4.41577      107.117 
3.98252e-05      3.38513      110.042 
1.65149e-05     0.339925      0.00000 
4.77865e-05     0.665204      96.9326 
0.000168855      4.55462      103.977 
0.000155885      1.62738      133.505 
0.000179628      1.25851      107.560 
5.82724e-05      2.22439      112.178 
0.000256992      2.97348      107.219 
7.28259e-05     0.867991      75.3270 
3.02785e-05      1.76077      105.144 
1.54223e-05     0.360186      0.00000 
9.30025e-05      3.74016      138.465 
6.85480e-05      2.49866      107.711 
0.000310922      1.89672      117.650 
6.53368e-05      4.41007      106.875 
0.000258403      1.00917      123.690 
7.76688e-05      2.44559      129.022 
0.000400401      5.71110      101.313 
0.000122027     0.424483      45.0000 
1.45396e-05      1.07906      79.2996 
0.000283571      3.64562      125.178 
7.38351e-06      3.04237      114.884 
4.24343e-05     0.647814      98.8622 
2.14049e-05    0.0828082     -75.8378 
2.14172e-05     0.438496      136.803 
1.43286e-05     0.379696      0.00000 
3.42318e-05      3.39213      110.363 
4.72317e-05      4.44560      111.372 
2.12836e-05      3.02400      115.045 
1.42833e-05     0.282706     -171.913 
1.41832e-05      1.07647      132.005 
2.66613e-05      3.14121      114.441 
9.21243e-05      1.06150      132.737 
6.90639e-05     0.320306     -176.373 
5.88382e-05      3.87023      141.297 
2.64463e-05      3.00633      115.203 
1.34865e-05      4.54065      104.284 
6.35577e-05     0.651243      100.624 
1.95263e-05     0.399956      0.00000 
6.18718e-05      4.40423      106.623 
5.52003e-05      1.09824      79.4886 
6.61065e-06      4.53104      104.835 
0.000165101      3.66220      124.996 
8.25360e-05     0.873342      74.0411 
0.000105056      4.51671      105.149 
6.51533e-06     0.438496      133.197 
0.000228325      2.45839      129.389 
7.14878e-05      3.46777      97.2849 
4.24723e-05      2.98801      115.368 
1.20721e-05      1.75559      104.505 
1.83386e-05      3.15966      114.289 
0.000182602      2.36867      123.277 
0.000347940      3.85759      141.532 
8.78448e-05      2.49257      107.268 
0.000105331      3.75535      138.670 
6.07703e-06     0.452074      135.000 
1.77550e-05     0.440193     -2.63804 
3.82339e-05      4.47186      111.519 
0.000123908      5.52124      102.975 
6.21085e-05      3.18648      114.471 
7.60034e-05     0.655281      102.365 
2.63295e-05      2.21710      111.711 
1.13916e-05      2.99642      115.705 
0.000116571      4.49083      117.593 
1.09766e-05      3.39897      110.672 
3.27297e-05     0.340529     -176.589 
2.68333e-05     0.460433     -2.52200 
7.68288e-05      3.48786      97.2427 
1.11213e-05      2.96972      115.536 
3.20856e-05      5.24363      107.540 
6.34977e-05      4.50304      105.454 
2.07480e-05      1.75080      103.887 
3.53355e-05      4.39848      106.370 
7.08685e-05      2.97818      115.874 
7.67037e-05      1.07484      133.501 
1.52566e-05      1.27784      107.286 
0.000109770      4.56946      103.669 
2.52032e-05     0.354273     -106.362 
0.000113420      1.35982      107.105 
5.15726e-06     0.360186      180.000 
0.000106148     0.878907      72.8181 
6.44078e-05     0.379696      180.000 
9.86859e-05      5.22503      107.605 
5.73864e-05      1.83693      125.255 
9.86178e-06     0.480675     -2.41573 
2.84563e-05     0.659734      104.020 
8.13500e-05      2.38501      123.020 
6.70927e-05      4.22837      113.412 
9.56012e-06      3.80867      100.903 
0.000187158      3.81530      97.8337 
0.000148863     0.521537     -4.37341 
1.86767e-05      2.94816      106.959 
4.33225e-05      3.40617      110.990 
2.26796e-05     0.679409      103.606 
0.000208591     0.424884      48.7950 
0.000128346     0.334882     -107.339 
4.71258e-06      3.81812      98.1349 
4.38752e-05      3.81241      101.191 
0.000179822      2.96064      116.039 
4.35296e-05      3.46535      96.9650 
6.35143e-05      1.73187      104.042 
1.78334e-05      4.22036      113.160 
8.94899e-06      5.28332      106.723 
0.000151661      2.94231      106.582 
1.28641e-05      2.20968      111.223 
0.000125685      1.02055      124.637 
8.05488e-05     0.684458      105.255 
2.08801e-05      4.17107      110.779 
3.55529e-05      1.34118      107.350 
0.000124810      1.30256      107.882 
5.40681e-05      1.11816      79.6780 
8.57863e-05      1.06077      134.226 
2.07665e-05      3.21264      114.655 
4.96942e-05      5.29695      106.450 
4.14654e-05     0.400469      177.100 
2.34890e-05      3.81640      101.489 
4.85324e-05      3.48546      96.9246 
0.000105135      4.58459      103.372 
3.29595e-05      2.17730      110.434 
3.64994e-05      4.16419      110.528 
8.78314e-05      5.20572      107.672 
7.55370e-05      3.43139      111.178 
1.05436e-05      2.46163      106.524 
0.000100561      4.51817      117.701 
5.60384e-05      1.97950      119.675 
4.55339e-05      1.32186      107.612 
1.45954e-05      3.82033      101.776 
3.84158e-05      4.49788      105.214 
0.000165202      3.67342      125.245 
2.94876e-05      4.20174      113.268 
1.38054e-05      3.82452      102.073 
5.26377e-05      1.30249      79.3763 
4.42678e-05      2.35803      122.881 
4.96584e-05      3.46295      96.6322 
2.55751e-05     0.441522      174.832 
3.90743e-05     0.885104      71.5651 
9.82853e-06      4.15713      110.267 
9.91869e-06      3.82881      102.369 
2.93525e-05      2.17031      109.932 
0.000128342      4.64751      103.435 
1.57251e-05      3.83303      102.654 
4.56761e-05      4.13183      110.097 
8.65403e-06      2.45594      106.070 
3.04542e-06     0.555796      52.2946 
3.30235e-05      3.83752      102.949 
3.01615e-06      2.94245      116.212 
2.66417e-05      1.61350      132.984 
1.92635e-05      3.77059      138.873 
1.91762e-05      1.86474      125.385 
3.04980e-05      2.47130      129.752 
3.81414e-05      1.06077      135.774 
2.64642e-05     0.568413      50.6787 
5.31466e-05      2.96959      116.390 
2.95063e-06     0.463888      172.565 
2.44230e-05      4.20979      113.522 
5.75780e-06     0.466942      170.099 
4.02076e-05      5.18642      107.740 
4.90944e-05      4.56489      103.431 
4.40589e-05      3.48307      96.5937 
1.88469e-05     0.519084      164.316 
2.78751e-06    0.0896014     -116.350 
2.78030e-06     0.490508      168.260 
3.62680e-05      3.84211      103.244 
1.60165e-05      3.43877      111.493 
2.73236e-06      1.13810      79.8607 
5.23070e-06      3.87596      104.039 
2.71858e-05      3.23921      114.820 
-9.76114e-05      3.56655      102.627 
2.60114e-06      2.47408      129.091 
1.01272e-05      2.16374      109.447 
6.73976e-05      3.79598      97.8738 
1.24369e-05      2.48691      129.454 
1.00787e-05      2.37443      122.625 
1.74345e-05     0.544027      162.915 
1.23699e-05      1.98961      120.182 
7.46161e-06     0.873371      69.8991 
1.22227e-05      5.19961      107.460 
4.86977e-06     0.695981      108.415 
4.87295e-06      1.04726      136.539 
1.21614e-05      1.30893      108.726 
4.87292e-06     0.576909      123.649 
4.87198e-06      2.13138      108.601 
4.82705e-06      3.26612      114.993 
2.42531e-06      1.28258      79.2094 
0.000134797      8.30796      110.134 
0.000170857      8.31496      110.265 
3.15781e-05      8.32629      110.088 
9.71643e-06      8.31960      109.961 
1.83550e-05      8.32494      109.652 
8.51305e-05      8.32200      110.396 
8.71926e-06      8.33749      109.479 
1.66208e-05      8.35589      109.434 
8.01911e-05      8.37500      109.388 
0.000110005      8.32882      110.522 
0.000102547      4.11369      99.2372 
6.82658e-05      3.69876      111.568 
2.29255e-05      8.36829      109.257 
5.93352e-05      3.28921      97.6827 
3.83190e-05      3.22083      114.971 
2.10313e-05      1.87880      117.937 
5.14390e-06      8.29254      109.440 
1.00793e-05      4.11687      99.5052 
5.04626e-06      3.19492      114.801 
0.000577869      7.79870      42.6097 
8.52843e-05      8.10153      5.81040 
-0.000337159      10.9820     -67.9638 
0.000496921      8.08137      5.82494 
-0.000408103      9.79043     -54.3949 
-0.000157808      10.0644     -83.4971 
-0.000231665      7.02850      98.0150 
-0.000505863      6.90820      142.769 
0.000410620      8.64495     -94.3808 
8.10925e-05      5.98850      7.29243 
-0.000442906      10.2904     -84.3127 
0.000458450      4.67266      137.773 
0.000412007      6.54398      163.670 
-7.50788e-05      8.45990      34.4033 
-0.000537491      5.96335     -102.588 
-0.000175995      9.30375      115.466 
-0.000108253      3.91654      55.8228 
0.000140386      5.97092      7.50281 
0.000433113      9.34828      169.772 
-0.000374610      10.5665     -43.8491 
0.000264975      7.81362      42.5091 
0.000336567      8.76674      172.925 
-0.000266941      7.68100      46.1598 
0.000228451      3.73138     -130.433 
7.10429e-05      7.35417     -45.0000 
0.000231560      6.22677     -5.34508 
0.000196493      6.72401     -132.467 
0.000195280      2.47937     -72.1463 
0.000169936      12.3105     -41.6420 
0.000226956      9.39014      135.172 
0.000130770      7.42726      17.0674 
0.000127720      4.57926      149.851 
-0.000254265      10.5197      122.420 
3.44462e-05      10.0670     -65.2153 
0.000192608      9.14937     -39.5023 
-6.45079e-05      8.45468      34.5942 
-3.41569e-05      5.94804     -102.821 
0.000159073      10.2586     -12.3843 
-0.000220173      5.47062     -68.7780 
0.000125591      7.33986     -45.1118 
0.000188459      2.74227      79.9139 
0.000156370      10.0936     -65.1630 
-6.48736e-05      9.30208     -3.94566 
-9.54377e-05      11.9499     -57.1601 
-0.000216375      5.68025     -90.8099 
-6.19201e-05      8.83889      13.3461 
-0.000185184      9.23463     -31.8988 
9.36300e-05      13.3752      131.484 
0.000124443      8.45081     -87.1498 
0.000123380      8.62701     -94.5199 
0.000153366      7.25443     -152.587 
9.14921e-05      9.25050     -43.9516 
-0.000121379      5.08083     -97.2373 
6.19375e-05      9.96119      155.443 
0.000151230      12.2824     -41.6318 
-0.000152054      8.48681      31.7057 
0.000151974      8.87250      32.2935 
0.000122808      13.3623      131.421 
0.000120890      3.80816     -165.087 
6.02318e-05      9.75535      139.158 
5.96554e-05      7.66843      53.6997 
-3.05845e-05      9.32371     -4.06130 
5.97231e-05      6.61790      124.411 
8.92293e-05      8.14007     -38.6153 
8.94133e-05      12.8668      137.456 
-8.88705e-05      12.7067     -128.098 
-5.89815e-05      9.81384      176.963 
3.00790e-05      8.32953     -45.2920 
3.00942e-05      4.24356     -71.3119 
5.94572e-05      10.2492      114.315 
2.99144e-05      12.9137      50.4677 
-2.98989e-05      9.81870     -54.3676 
-2.95012e-05      10.2527     -57.4265 
-2.94095e-05      7.04729      137.067 
2.93678e-05      6.36061     -129.898 
2.92759e-05      9.01396     -33.2310 
2.92521e-05      8.74425      173.035 
-2.91985e-05      9.49737     -93.5015 
2.92022e-05      6.04016      89.4305 
2.91925e-05      8.35818     -45.2910 
-2.90540e-05      9.71119     -66.7096 
2.90199e-05      9.01771      154.514 
2.88744e-05      5.89449     -161.196 
-7.49658e-05      7.18668     -121.921 
0.000137336      12.3915      49.9079 
0.000192093      9.50432     -45.6813 
-0.000113828      7.91124     -3.04478 
-8.87660e-05      14.1422      44.8861 
-0.000121612      7.19742     -122.058 
-6.61499e-05      11.7934      120.130 
-0.000116696      7.38577      43.2421 
-0.000182727      4.74056     -125.907 
-6.06544e-05      10.5171     -56.4006 
0.000252292      9.47566     -45.6834 
-0.000121679      11.0236      24.8904 
9.42816e-05      11.8799      52.9354 
-0.000258490      14.1566      44.8282 
-0.000126346      11.8036      120.215 
0.000106959      9.86630     -117.136 
-5.74416e-05      7.02463     -65.2582 
-5.54407e-05      10.9211      153.812 
0.000189354      10.6064      71.8714 
0.000120248      10.1960     -119.884 
-7.56368e-05      8.63628     -167.153 
-3.89211e-05      11.1059      157.222 
1.97247e-05      12.3785      49.9796 
-3.81403e-05      9.10247     -12.6912 
-0.000126196      4.30438     -92.6679 
-1.90476e-05      8.96667      80.3698 
-8.16389e-05      8.07362      174.742 
3.74477e-05      12.3635      49.9215 
1.87825e-05      8.92558     -75.4661 
-0.000123640      10.5059     -56.4927 
-1.83491e-05      3.13829     -11.0278 
-1.82687e-05      12.9972     -129.003 
1.82121e-05      10.1405     0.563908 
-1.81883e-05      7.37241      43.1316 
-0.000206641      11.0803      157.276 
-0.000102053      8.19852     -47.8639 
-1.78399e-05      8.43449     -79.7558 
-1.78436e-05      10.4814     -54.9435 
7.67487e-05      12.3505      49.9934 
-3.44439e-05      13.0099     -129.073 
4.78449e-05      8.93069     -75.3402 
5.10484e-05      10.1606     0.452771 
1.75647e-05      9.58988      174.135 
-0.000125857      9.10694     -12.8156 
-8.05236e-05      8.61203     -167.255 
-7.48920e-05      3.15744     -10.9601 
-1.72341e-05      6.81058     -118.595 
-1.71551e-05      8.62473     -25.2563 
-1.71614e-05      5.22342     -63.1405 
1.70554e-05      12.3655      50.0515 
4.86900e-05      8.96028      37.3843 
-8.95819e-05      8.05419      174.729 
-7.39165e-05      8.43811     -79.6204 
-0.000199272      10.3320     -53.2616 
-0.000163823      10.1807      89.2103 
-3.23882e-05      7.00692     -65.1914 
4.69284e-05      9.61003      174.147 
-5.84283e-05      7.04059      89.3466 
-9.73576e-05      7.19065     -122.275 
-8.41096e-05      6.99526      25.7569 
4.24241e-05      7.85509      8.93592 
-0.000191173      5.21430     -63.3391 
2.91862e-05      7.45787     -111.057 
1.62952e-05      5.20693     -43.1313 
-3.06438e-05      7.32169     -123.864 
6.17412e-05      10.0228     -1.37281 
-3.14523e-05      6.79345     -118.674 
-1.59832e-05      13.0222     -129.139 
3.05819e-05      11.8917      52.8604 
0.000208162      8.97639      37.3058 
-1.56302e-05      10.4812      162.565 
-1.55372e-05      8.64238     -25.2011 
1.55014e-05      10.2289      177.646 
-0.000124826      6.09788     -29.2525 
-1.52301e-05      7.38494      43.4643 
-0.000165648      10.1767     -143.872 
-0.000103534      6.56183     -118.989 
1.48448e-05      6.69871     -166.004 
-1.48975e-05      8.13768      55.9187 
-1.48126e-05      6.85098     -63.6595 
-6.85203e-05      9.01985      142.749 
-2.89299e-05      11.8411      120.332 
5.23901e-05      10.2484      177.650 
1.45023e-05      7.46981     -110.862 
-1.44943e-05      13.0731     -129.412 
-2.72863e-05      8.14905      55.8007 
-7.73977e-05      10.5228     -56.5536 
2.77797e-05      7.77393     -115.445 
-5.29534e-05      8.58855     -167.358 
7.88055e-05      10.0630     -1.47844 
-4.84865e-05      7.39772      43.7958 
-0.000123817      5.74336      57.8050 
3.90654e-05      8.86774     -38.4963 
1.40017e-05      5.19216     -43.2842 
9.19469e-05      10.1859     -119.785 
8.27889e-05      7.55579     -12.3813 
-4.88442e-05      4.74518     -125.565 
1.36795e-05      9.85708     -117.031 
2.50747e-05      10.0001      32.0049 
-3.67783e-05      7.03313     -65.1083 
-1.35538e-05      12.4177     -54.1065 
-0.000168998      11.0983      157.315 
-3.88841e-05      7.41176      43.9089 
-0.000135731      13.7266     -137.007 
-0.000235704      11.8514      120.416 
3.81728e-05      11.9039      52.7826 
-5.09764e-05      4.31602     -33.4690 
3.75569e-05      9.58783      174.255 
1.32369e-05      10.1801     0.451903 
-1.29640e-05      13.7897     -44.3540 
5.75075e-05      7.61470     -47.3442 
-2.54530e-05      5.21236     -127.048 
1.29075e-05      9.23981      152.823 
-1.27015e-05      9.27607     -57.2355 
2.32380e-05      5.84451      72.0606 
-8.05487e-05      10.2349     -125.616 
-3.57050e-05      5.32085     -179.135 
1.25015e-05      9.20614      154.659 
3.56065e-05      7.62273     -115.155 
0.000137928      13.5414      138.235 
-2.38966e-05      8.05242      174.867 
7.50891e-05      9.19146     -94.7438 
-2.36197e-05      9.83396     -110.353 
-2.37767e-05      12.3605      134.737 
-1.21353e-05      8.42566      54.2701 
2.31742e-05      9.25783      152.880 
-0.000208250      13.0065     -129.196 
-3.43775e-05      9.24807     -57.2732 
2.34315e-05      10.6879     -120.598 
-1.19168e-05      8.20342     -71.9628 
-2.34165e-05      14.1704      44.7726 
-2.30330e-05      9.03599      142.827 
3.30381e-05      2.71235      5.49293 
-2.27068e-05      9.87025     -128.912 
-4.44787e-05      5.22414     -127.219 
1.17625e-05      4.70969      130.522 
-4.31700e-05      6.08837     -29.0923 
4.39045e-05      9.19309     -94.8650 
-4.12004e-05      7.32821     -124.212 
8.32981e-05      12.7423     -44.5562 
0.000129304      10.5872      71.8373 
3.28938e-05      9.16085      154.665 
7.39921e-05      11.9162      52.7051 
-1.15579e-05      8.69528     -27.6862 
-4.28717e-05      8.18406     -47.7723 
-2.24461e-05      8.42126      54.0849 
2.26913e-05      10.0833     -1.47547 
1.13898e-05      7.89102     -119.617 
5.34506e-05      8.66410     -99.7030 
-4.25287e-05      4.33231     -33.3267 
-1.13340e-05      8.19717     -72.0975 
-1.13110e-05      10.5392     -33.7795 
-2.14012e-05      8.44165     -79.4902 
1.12447e-05      11.6885      136.941 
8.19651e-05      8.94454     -103.977 
-7.92515e-05      7.40129     -90.9295 
6.62326e-05      12.0753     -147.994 
-3.18146e-05      11.9761      33.5566 
-7.04314e-05      13.0193     -129.265 
3.20099e-05      10.1041     -1.58736 
-4.51919e-05      10.2010      89.2118 
7.82698e-05      13.8440     -132.542 
-3.12569e-05      8.66548      118.991 
-5.86410e-05      11.7068      128.201 
-0.000116550      12.3678     -126.518 
-3.03983e-05      9.81496     -110.394 
2.10350e-05      7.32798      53.0961 
-0.000121180      11.9873      33.6373 
-2.12667e-05      8.72264     -27.7422 
-1.07366e-05      8.78468     -165.364 
-1.07222e-05      12.3462      134.803 
2.07215e-05      8.79803     -71.0319 
-3.91003e-05      6.88893     -35.9062 
-1.06053e-05      13.8604     -44.2981 
1.05606e-05      7.60508     -115.217 
1.05042e-05      11.4131     -116.208 
1.04557e-05      11.7027      137.006 
-9.97620e-05      12.3279      132.699 
2.01832e-05      10.0060      31.8473 
-2.04612e-05      7.38666      43.0282 
-2.03086e-05      7.05152     -65.1776 
-0.000126338      11.5935     -58.8327 
4.83446e-05      4.62121     -1.23748 
-4.82878e-05      8.71678     -155.317 
-1.95733e-05      4.28489     -92.6800 
0.000184524      11.5883      39.0445 
-6.36775e-05      9.87951     -55.8911 
1.01754e-05      6.90274     -13.9139 
0.000175952      14.4812     -135.000 
-1.01800e-05      10.0415      45.4844 
1.96166e-05      8.50193     -17.2403 
-6.42002e-05      13.0703     -129.537 
-1.01734e-05      6.98587      25.9788 
2.95487e-05      11.7457      137.071 
2.92834e-05      10.1236     -1.58430 
3.80500e-05      10.3444     -163.141 
1.00241e-05      9.27587      152.937 
6.46972e-05      7.20683      120.338 
6.50372e-05      9.14505     -71.6438 
-9.90580e-06      9.82178     -110.501 
9.86091e-06      9.56648      174.360 
9.81201e-06      10.0709      75.2721 
0.000146798      10.3386     -163.249 
-9.80836e-06      7.77996      43.7534 
9.77159e-06      7.74998      65.2861 
2.81558e-05      8.66071     -99.5709 
-1.87045e-05      9.91128     -144.612 
-2.75392e-05      8.95031      29.8903 
-9.61910e-06      9.23286      144.968 
-0.000177303      12.9420      52.1574 
-9.61844e-06      8.68321      118.926 
-0.000208394      8.61528     -84.8078 
-1.84293e-05      6.92216     -59.4346 
-1.78174e-05      13.3130      46.6444 
-3.60859e-05      14.0291     -45.4616 
-1.81300e-05      9.25904     -57.1677 
-1.86745e-05      8.41819     -79.5956 
-8.85281e-05      10.4952     -56.5815 
1.85607e-05      7.75815      65.1552 
2.75841e-05      13.5199      135.238 
1.86420e-05      11.0072     -118.427 
1.87595e-05      8.93035     -104.128 
-9.44810e-06      6.93249     -59.2904 
9.92625e-05      11.9280      52.6305 
0.000210829      13.1349     -132.657 
-9.40833e-06      13.7252     -136.890 
9.38493e-06      9.30213      152.885 
-3.53174e-05      10.2463     -125.705 
-8.72604e-05      3.81640      55.8912 
-4.50849e-05      13.3122      46.5211 
-1.85613e-05      8.72781      118.916 
2.43497e-05      11.4859     -37.9255 
9.25984e-06      10.2416     -3.69679 
9.26207e-06      11.4565      59.0015 
-9.25458e-06      10.6583      50.6340 
-1.82831e-05      9.58528     -28.5453 
-2.67296e-05      7.07810     -65.1031 
-0.000140926      12.0317      34.2976 
4.43281e-05      1.93621      123.204 
3.46771e-05      13.2295      136.777 
-6.87436e-05      10.6483      50.8717 
4.28994e-05      11.4699     -37.9877 
4.25622e-05      13.5132      138.239 
8.45086e-05      8.93532     -104.254 
-9.02494e-06      4.91801      85.0984 
9.02970e-06      8.52128     -17.1999 
9.00407e-06      14.2275     -134.545 
-0.000171068      12.2921     -52.8699 
0.000176047      12.4634      43.5046 
-2.63334e-05      5.54440     -134.123 
8.91312e-06      9.11623      154.673 
-8.91631e-06      7.38770      42.8061 
9.75146e-05      11.0333     -56.3099 
-6.70665e-05      8.77272      118.900 
-4.24060e-05      9.80351     -110.541 
-7.46655e-05      7.89595      112.019 
8.84912e-06      11.0062     -118.195 
8.81504e-06      2.71165      13.2133 
1.72277e-05      9.21165     -94.7334 
-8.80242e-06      8.73451     -155.370 
-2.58303e-05      9.56749     -28.6033 
-5.05821e-05      12.0431      34.3772 
0.000123485      11.5986      46.1193 
0.000206420      10.3580     -163.281 
0.000136702      10.2562     -86.7579 
-8.74811e-06      6.93303     -35.8491 
-4.89608e-05      7.42026     -90.6200 
8.72107e-06      11.7600      137.136 
-1.70390e-05      6.43468     -106.804 
-0.000382814      11.8616      120.501 
3.90336e-05      8.64073     -99.5932 
-8.65240e-06      7.38886      42.5841 
-6.69929e-05      13.5520     -136.315 
0.000134445      9.17067     -71.5636 
2.48659e-05      9.60428      175.941 
-2.54312e-05      13.2530      45.9176 
8.60047e-06      4.64072     -1.23228 
-8.54906e-06      8.42173     -79.4650 
-5.64210e-05      8.95782      29.7133 
-7.11754e-05      12.3319      134.736 
8.46766e-06      2.69740      13.7270 
-8.47402e-06      14.1703      44.8841 
-0.000104145      12.3799     -126.593 
1.66383e-05      14.2133     -134.487 
8.42803e-06      11.4042     -116.339 
5.66202e-05      9.07194      154.677 
4.07785e-05      9.26607      72.1505 
0.000108528      10.2456     -83.4985 
-1.63346e-05      7.03276     -71.2538 
-0.000217387      10.8927      52.3099 
-8.35315e-06      4.91972      84.8720 
-1.65540e-05      5.55896     -133.977 
8.28741e-06      10.5121      145.855 
-0.000108729      11.2189      122.332 
-3.22120e-05      6.44827     -106.579 
-3.22825e-05      9.54067     -28.5526 
-2.39455e-05      7.09580     -65.1694 
-2.40782e-05      11.6322      119.341 
-8.49758e-05      10.5121     -56.6423 
-6.28406e-05      9.69009     -133.745 
1.61166e-05      8.99251      37.2275 
-6.18249e-05      12.9680      44.8125 
8.19157e-06      11.3769     -116.521 
-0.000220723      13.8733     -137.569 
-4.73621e-05      11.9813      33.7687 
4.69323e-05      11.7381      45.1399 
6.20909e-05      9.19185     -66.6706 
1.58387e-05      11.8178      137.262 
8.06630e-06      11.3682     -116.653 
0.000229393      13.5525      41.0510 
-8.04654e-06      9.90765     -55.8598 
-0.000153097      13.5509     -136.196 
-5.46537e-05      9.42187      10.6432 
-8.03750e-06      7.89343     -144.175 
-2.37430e-05      13.2385      45.8566 
-1.57751e-05      11.5657     -58.8667 
1.58304e-05      14.1855     -134.372 
-8.02046e-06      9.93939     -110.987 
1.58430e-05      8.84874     -38.7622 
-0.000121932      13.5786     -131.178 
-2.33403e-05      9.79668     -110.434 
1.57788e-05      12.7653      50.1487 
-7.94272e-06      5.54403     -134.419 
-1.58428e-05      4.22205     -170.176 
3.85467e-05      11.3329     -116.972 
3.13554e-05      13.5832     -133.211 
8.48212e-05      11.5879      31.8807 
7.89689e-06      10.2681     -83.3990 
7.91300e-06      14.1991     -134.428 
7.89853e-06     0.600426      60.0064 
7.89190e-06      4.87358      4.23835 
-3.10160e-05      10.0644      172.580 
1.56449e-05      10.1406     -81.1504 
-1.56244e-05      12.9685      44.9367 
2.32890e-05      11.0164     -56.2515 
7.84709e-06      9.70058     0.474241 
-7.82166e-06      13.3269      46.5811 
-2.30520e-05      9.95831     -110.945 
5.34233e-05      8.68458     -110.774 
1.53712e-05      11.3412     -116.836 
2.33182e-05      8.92052     -104.408 
2.31700e-05      10.1768      79.9272 
6.89137e-05      11.5726      39.1077 
-3.05550e-05      8.79959      118.954 
-2.32815e-05      10.1200      89.5454 
8.32276e-05      9.27207      72.0357 
-6.07119e-05      11.0725      157.373 
-3.79618e-05      9.52288     -28.6108 
1.53369e-05      8.98027      37.1246 
6.83093e-05      11.6126      46.0472 
2.32508e-05      13.1224     -132.467 
3.80001e-05      14.1568     -134.371 
-6.04496e-05      4.21865     -170.447 
5.29186e-05      9.68051     0.590703 
7.74019e-06      13.2282      136.655 
1.53490e-05      9.31983     -90.1246 
7.71440e-06      8.84625     -38.9437 
-2.29232e-05      8.77581      13.3078 
-7.72030e-06      3.11130     -140.470 
3.73352e-05      9.05363      154.622 
4.56724e-05      10.1638     -81.0551 
3.01937e-05      10.1803      79.8149 
-9.76472e-05      10.5368     -125.109 
-2.27389e-05      7.02628     -71.4103 
-1.53308e-05      9.68178     -167.716 
0.000135188      13.5965     -133.271 
-3.03602e-05      13.0117      45.6238 
0.000105812      13.1093     -132.404 
-2.28249e-05      6.44251     -106.406 
-3.04404e-05      10.1199      89.6601 
6.02211e-05      5.11375      4.25813 
7.66095e-06      10.4953      145.793 
2.28133e-05      7.51951     -73.7805 
3.76534e-05      8.74034     -39.3351 
-3.00973e-05      10.2215      89.1040 
-2.26742e-05      13.2381      45.7326 
-5.52779e-05      10.9971      142.463 
-3.78377e-05      11.9925      33.8492 
-9.02350e-05      12.3920     -126.669 
-2.26815e-05      9.70201     -54.3098 
2.27424e-05      8.90597     -104.567 
-7.61272e-06      12.5945      54.2417 
-1.51284e-05      4.60604     -23.0062 
6.00532e-05      10.6002      71.9755 
-1.52152e-05      9.72064     -167.766 
-7.58708e-06      10.7481      44.7002 
3.00699e-05      9.31981     -90.0000 
-2.91217e-05      5.55852     -134.273 
3.00750e-05      11.7524      45.0698 
-4.50323e-05      8.59335     -84.9252 
3.00685e-05      8.28227     -40.6903 
5.99674e-05      11.5603      39.0327 
2.99674e-05      7.65031     -14.6878 
7.52722e-06      10.1668     -80.9465 
-2.25587e-05      9.91654     -168.012 
3.00620e-05      11.6051      31.8279 
6.74037e-05      9.16514      57.3860 
-5.23407e-05      10.7625      44.6243 
1.50367e-05      11.3951     -116.476 
-2.99269e-05      10.1198      89.7748 
5.23148e-05      7.83222     -74.2966 
-3.74202e-05      10.0418      172.676 
-2.99387e-05      9.61640      12.7349 
2.24479e-05      12.4973      49.4782 
5.98589e-05      8.88284     -105.006 
-7.50210e-06      10.1004      89.6595 
-1.97951e-05      5.98854     -30.5045 
5.98668e-05      11.5997      46.2581 
5.23531e-05      11.3149     -117.019 
2.99369e-05      9.94588     -6.58079 
3.74013e-05      9.75654      68.2215 
-3.73897e-05      13.0115      45.7477 
2.24536e-05      9.25577     -21.0182 
3.73954e-05      10.1893     -80.8512 
7.51047e-06      7.54370     -73.6796 
-1.50098e-05      9.77523     -167.953 
-2.99349e-05      8.64057      93.9839 
-3.73887e-05      8.79480      13.2786 
-5.23605e-05      12.4992      39.6779 
-4.48864e-05      9.78962     -110.323 
-3.73899e-05      12.1809      123.820 
1.49591e-05      9.88451      27.3412 
-7.50554e-06      13.7118     -136.949 
-3.73397e-05      9.93562     -168.035 
2.24145e-05      9.83017     -116.984 
-7.47107e-06      4.59816     -22.7738 
-2.99129e-05      9.69020     -54.4071 
7.47287e-05      11.6154      31.9096 
4.48132e-05      11.1622     -116.382 
0.000104556      13.0956     -132.339 
-2.99084e-05      12.0207      34.2208 
2.99171e-05      9.17686     -71.4480 
5.55448e-05      11.3417     -147.823 
-7.47680e-06      12.0038      33.9295 
-7.46966e-06      9.97653     -110.905 
7.47460e-06      9.22987     -20.9502 
-5.23317e-05      10.9051      52.2256 
-2.98461e-05      13.5655     -136.255 
-2.24011e-05      7.01566     -72.7531 
-5.97893e-05      10.1003      89.7744 
-4.48264e-05      9.79504     -167.977 
8.97329e-05      13.5392      40.9864 
7.47286e-06      9.96526     -6.56793 
-7.46928e-06      7.60091     -148.775 
6.73316e-05      11.5451      39.0937 
-1.49224e-05      4.58017     -22.8683 
-4.48492e-05      13.5800     -131.059 
-3.73401e-05      8.63919      93.8498 
-1.49273e-05      6.79179     -105.016 
-1.49252e-05      12.3463      134.670 
2.99096e-05      3.26139      74.3425 
3.74014e-05      12.4773      43.5720 
-2.23936e-05      12.9824      44.7494 
7.47259e-06      14.1429     -134.426 
7.47075e-06      9.21750     -66.6073 
2.98893e-05      10.4785     -76.7609 
-2.98801e-05      9.61211      12.6215 
-1.49402e-05      11.9979      34.0608 
-2.99117e-05      9.95544     -168.059 
2.99244e-05      9.66025     0.591942 
-1.49696e-05      8.75337     -161.066 
-4.49546e-05      12.3841     -126.462 
-2.99018e-05      11.3984     -45.0000 
-5.23424e-05      12.4836      39.7372 
-2.12533e-05      7.60779     -148.985 
7.47642e-06      10.8831     -113.504 
-1.49523e-05      13.2241      45.6736 
2.99459e-05      9.98772     -6.67010 
7.46471e-06      12.4819      49.4178 
-1.49576e-05      12.3204     -52.8516 
-7.45324e-06      8.77234     -67.7636 
1.49681e-05      13.0417      47.9221 
-7.48852e-06      11.0648      157.470 
7.46140e-06      8.25418     -40.6793 
7.46525e-06      9.86651      27.3953 
7.45913e-06      9.24879     -20.9053 
1.49828e-05      11.0042      66.0883 
7.49899e-06      13.0286      47.9858 
2.25407e-05      10.3524     -163.384 
-1.49980e-05      12.9942     -129.129 
1.49984e-05      13.1760     -139.370 
-7.48067e-06      11.6768      119.332 
-7.45943e-06      8.79378      27.4987 
7.47736e-06      10.2480     -83.3860 
1.50029e-05      10.2308     -173.265 
-7.49765e-06      9.48547     -159.770 
7.48580e-06      9.35440     -23.1654 
7.51413e-06      10.2125     -80.7571 
-7.51630e-06      12.1700      123.744 
-7.51346e-06      9.88305     -47.7881 
7.48305e-06      12.1259      129.176 
7.50952e-06      13.0820     -132.273 
-7.49513e-06      12.9300      52.2256 
-7.50075e-06      9.42752      12.6203 
7.53382e-06      11.7667      45.0000 
-7.51253e-06      7.61825     -148.854 
5.28119e-05      12.5683     -126.522 
-4.42883e-05      11.0005     -111.433 
8.77496e-06      11.3148     -147.854 
8.70283e-06      12.7970     -51.5354 
0.000116230      11.4525      59.2255 
8.53893e-06      11.3313     -147.907 
9.71445e-05      12.8376     -51.4526 
3.94928e-05      11.3252     -147.770 
-3.68680e-05      10.9934     -111.339 
-3.75004e-05      12.6563     -37.3604 
7.97349e-06      5.68483     -52.0016 
3.75978e-05      7.85759     -73.1346 
-4.93376e-05      14.2415     -44.8292 
-2.90044e-05      7.12271     -65.0900 
4.82586e-05      12.2547      46.9850 
-5.72658e-05      9.70359     -133.828 
5.54191e-05      12.2604     -127.242 
1.49666e-05      9.98539     -6.55464 
-7.63653e-06      11.0286      142.589 
2.94386e-05      8.86144     -38.8644 
0.000123386      8.53992     -17.1612 
2.79198e-05      7.82671     -49.1443 
-5.27512e-05      12.1915     -131.009 
7.53348e-06      5.64501     -52.1978 
4.18407e-05      8.24099     -40.5724 
2.82640e-05      6.42691     -70.5496 
2.85409e-05      10.0633      30.8451 
-2.15615e-05      3.84057     -178.802 
-1.46962e-05      11.0125      142.525 
-4.06100e-05      11.2361      122.276 
4.10315e-05      8.63737     -99.4607 
1.30355e-05      12.5804     -126.596 
1.40306e-05      10.4215     -65.9948 
1.39047e-05      13.0837     -41.0957 
-1.38851e-05      10.9059      69.2719 
2.05726e-05      12.2409      47.0544 
-7.02679e-06      10.4874     -28.2263 
2.01974e-05      10.0071     -6.65713 
-6.97457e-06      6.79707     -105.181 
-2.66926e-05      12.7653      42.8394 
6.98088e-06      10.0788     -93.5258 
4.41322e-05      8.87722     -38.7823 
-2.03376e-05      7.79986     -148.630 
1.97060e-05      7.85195     -73.2709 
-1.97063e-05      4.62281     -84.2894 
-1.33214e-05      9.38007      12.4363 
-4.37618e-05      10.2866     -84.5331 
-5.54569e-05      10.4695     -28.2788 
1.93519e-05      13.5336     -45.1797 
4.35971e-05      10.6345     -63.0498 
-2.61205e-05      12.6084      41.6562 
3.17008e-05      13.8784     -136.577 
6.75408e-06      11.5835      47.9408 
-4.30517e-05      10.0548     -51.7856 
-2.54225e-05      4.63651      24.4662 
1.32353e-05      11.7590      59.7730 
-6.62446e-06      3.82152     -178.504 
-2.52506e-05      9.70304     -133.997 
-2.98948e-05      10.9178      69.4089 
-6.56683e-06      5.91290      111.009 
-3.07513e-05      10.3437     -32.1243 
4.22076e-05      10.0397      31.0607 
-6.53247e-06      7.79340     -148.433 
1.91912e-05      13.1118     -41.1017 
-2.48692e-05      12.9305     -43.4975 
-6.54773e-06      4.88198      84.5935 
-1.84255e-05      12.6285     -37.3411 
1.89182e-05      9.03533      154.567 
1.27904e-05      8.68926     -110.477 
1.86680e-05      9.44725     -45.5149 
3.12179e-05      11.0598     -126.766 
4.27450e-05      10.0921      120.224 
1.85487e-05      10.3951     -66.0476 
-1.26876e-05      7.79748     -148.101 
-3.65072e-05      4.88393      84.3569 
-6.36876e-06      8.84593      27.0280 
2.36519e-05      6.40781     -70.4893 
-3.00509e-05      10.9810      142.399 
-6.33746e-06      4.83514     -96.8901 
3.00192e-05      11.4739     -37.8487 
3.07331e-05      11.3525     -147.736 
-4.16123e-05      11.7296      127.867 
-2.42805e-05      9.97449     -84.0149 
-6.29963e-06      3.84103     -178.511 
5.31677e-05      10.2403     -3.58367 
6.24560e-06      3.17989      80.9578 
-4.77617e-05      14.2271     -44.8867 
-3.62580e-05      12.6230      41.5973 
-3.54798e-05      13.3144      46.7653 
-1.21095e-05      13.3207     -50.2382 
-3.55083e-05      9.59334      85.2170 
-6.19274e-06      2.95655     -146.302 
-6.19654e-06      10.9227     -68.1774 
6.17365e-06      11.7559      59.9884 
1.81662e-05      8.69769     -76.5704 
-6.20964e-06      7.79064     -147.900 
-1.81758e-05      10.7035     -111.484 
6.13920e-06      10.0686     -73.6153 
-1.21657e-05      10.4724      105.736 
1.79106e-05      8.69637     -110.602 
1.21310e-05      11.8519      134.315 
-1.18757e-05      9.39985      12.4097 
1.18468e-05      5.20572     -162.328 
-6.10512e-06      4.17571     -175.052 
-1.79510e-05      12.7505      42.9013 
-1.21089e-05      7.78493     -147.698 
1.19743e-05      11.7661      59.9030 
5.27269e-05      8.99612     -99.9864 
1.77983e-05      3.17688      81.3053 
-6.05022e-06      10.4723     -143.153 
-2.34806e-05      8.41647     -63.6177 
-2.34013e-05      8.99638      167.416 
-1.77047e-05      7.76183     -147.419 
1.75284e-05      10.8507     -117.322 
2.32509e-05      11.0720     -126.850 
5.95790e-06      9.00902      154.630 
-5.93729e-06      9.68898     -133.911 
5.94693e-06      7.34483      143.973 
-5.93844e-06      9.83266     -128.639 
4.05665e-05      13.8637     -136.520 
-1.73508e-05      8.62091     -162.027 
-1.16382e-05      6.24107      102.210 
2.31591e-05      11.8238      134.316 
1.16462e-05      13.1399     -41.1124 
-2.30822e-05      12.9755      141.822 
2.31067e-05      11.3696     -147.791 
5.87702e-06      5.23756     -162.671 
-1.15854e-05      2.97343     -146.518 
5.87430e-06      7.81196     -49.0507 
-1.72153e-05      7.30737     -125.082 
1.15519e-05      9.07639      121.484 
1.15611e-05      11.3534     -120.720 
1.15088e-05      6.76406     -15.4346 
-5.83244e-06      4.17744     -174.785 
-1.71907e-05      10.6921     -111.624 
-1.71959e-05      12.7521      42.7751 
-1.14879e-05      7.90328      112.150 
5.78331e-06      11.1161     -50.0360 
5.76752e-06      9.55462     -105.665 
5.75680e-06      11.3589     -147.877 
-5.75243e-06      9.53026      4.57482 
-5.75641e-06      9.95620     -154.155 
-5.72403e-06      3.82211     -178.200 
-5.71474e-06      9.04906     -55.0804 
-5.72081e-06      7.75572     -147.212 
-5.70020e-06      9.68848     -134.081 
5.69705e-06      10.7153      149.367 
-5.68360e-06      9.82952     -128.805 
-5.66271e-06      4.86376      84.3334 
5.67378e-06      13.5905      135.298 
-5.65114e-06      4.24442     -92.7056 
-5.63340e-06      10.3265     -32.1841 
! Tentative model.
! Flux (Jy) Radius (mas)  Theta (deg)  Major FWHM (mas)  Axial ratio   Phi (deg) T \
! Freq (Hz)     SpecIndex
6.41780e-06      12.4195      49.0484 
