! Center RA: 12 21 31.69052,  Dec: +28 13 58.50022 (2000.0)
! Established model.
! Flux (Jy) Radius (mas)  Theta (deg)  Major FWHM (mas)  Axial ratio   Phi (deg) T \
! Freq (Hz)     SpecIndex
 0.0639382      0.00000      0.00000 
 0.0162863    0.0300000     -90.0000 
0.00762856    0.0424264     -45.0000 
0.00182837    0.0670820      116.565 
0.00749196    0.0948683      108.435 
0.00343791    0.0670820     -63.4349 
0.000753267     0.123693      104.036 
0.00568889     0.120000      90.0000 
0.00224272    0.0848528     -45.0000 
0.000528636     0.150000      90.0000 
0.00407206     0.212132      98.1301 
0.00149234    0.0848528      135.000 
0.000451688     0.180000      90.0000 
0.000151786    0.0424264      135.000 
0.000445544    0.0300000      180.000 
0.00258238     0.241868      97.1250 
0.00135549     0.247386      104.036 
0.00324068     0.108167     -33.6901 
0.000920504    0.0948683      161.565 
0.00339954     0.276586      102.529 
0.00238247     0.123693      75.9638 
0.00173519     0.123693      165.964 
0.000307548     0.134164     -26.5651 
0.00166649     0.150000     -36.8699 
8.18445e-05     0.161555     -21.8014 
8.15814e-05     0.284605      108.435 
0.000120093     0.313209      106.699 
3.94791e-05     0.152971      168.690 
! Tentative model.
! Flux (Jy) Radius (mas)  Theta (deg)  Major FWHM (mas)  Axial ratio   Phi (deg) T \
! Freq (Hz)     SpecIndex
0.00119315    0.0948683      71.5651 
0.000269362     0.408044      107.103 
0.000553196    0.0948683      161.565 
0.00115792     0.417852      111.038 
0.000666064     0.134164      63.4349 
0.000190406    0.0670820     -153.435 
0.000736752     0.108167      56.3099 
0.000910614    0.0600000     -90.0000 
0.00111929     0.445982      109.654 
0.000258543     0.241868      97.1250 
0.000111466     0.210000      90.0000 
0.000348094     0.247386      104.036 
0.000429860     0.108167     -56.3099 
0.000198097    0.0900000      180.000 
5.82671e-05     0.189737      71.5651 
0.000550273     0.553173      102.529 
0.000462591     0.127279      45.0000 
0.000278755     0.123693      165.964 
0.000296797     0.127279     -45.0000 
0.000208290     0.201246      63.4349 
0.000445474     0.456946      113.199 
0.000323667     0.120000      180.000 
0.000682609      3.55598      115.484 
2.33384e-05     0.284605      108.435 
0.000132787     0.582495      101.889 
0.000129962     0.161555     -21.8014 
0.000207996     0.577062      98.9726 
0.000504393      3.53135      99.7824 
0.000142838     0.676831      102.804 
0.000151467     0.182483     -9.46232 
0.000118281     0.258070      54.4623 
0.000408439      8.57360      111.988 
0.000773615      3.83308      112.551 
5.66988e-05     0.189737     -18.4349 
0.000120060     0.256320      110.556 
7.47564e-05     0.713092      104.621 
0.000914423     0.484665      111.801 
0.000143301     0.792023      114.624 
0.000605787      2.00821      76.1713 
0.000532567      10.2931      113.352 
0.000409026     0.276586      49.3987 
0.000966976      1.17154      92.9357 
5.17587e-05      1.23146      87.2073 
0.000306956      2.36315      118.843 
0.000369447      4.79672      105.601 
0.000259971     0.228473      113.199 
0.000337867      13.5056      120.724 
0.000204264      1.79424      110.556 
0.000191617     0.212132     -8.13010 
0.000159423      2.71131      114.864 
0.000456494      4.42386      112.739 
7.97261e-05      1.76491      121.799 
0.000176753     0.804984      116.565 
0.000169054     0.296985      45.0000 
0.000412316      4.84126      132.489 
0.000168279     0.900500      88.0908 
0.000146562     0.706116      102.265 
0.000664243      13.4171      115.992 
0.000414981      11.1010      127.644 
0.000333319      4.82105      132.226 
2.96418e-05     0.134164      153.435 
0.000199426      1.78090      122.619 
0.000631130      5.74913      111.746 
0.000163674     0.152971      168.690 
0.000482996      2.27862      80.9097 
0.000237860     0.361248      41.6335 
0.000157896      6.46839      115.258 
0.000627235      11.4314      117.170 
0.000338797      3.18693      112.703 
0.000651751      15.2433      123.440 
9.99923e-05      1.26570      84.5597 
0.000640395      9.31803      127.017 
0.000106565      1.17346      94.3987 
6.26982e-05     0.670820      100.305 
0.000512926      10.3326      113.439 
0.000119859      8.60142      111.913 
6.27600e-05      8.85889      118.301 
3.90663e-05      4.78874      105.255 
0.000348851      8.84471      118.130 
0.000199714      13.5468      120.768 
0.000207430     0.553173      139.399 
0.000256548      8.88532      118.209 
4.87777e-05    0.0948683     -71.5651 
0.000158786      8.80657      105.409 
0.000227326      4.80993      104.816 
1.25285e-05     0.150000      143.130 
4.76871e-05     0.494773      75.9638 
8.32825e-05      1.82631      137.663 
0.000356189      10.8600      127.028 
0.000170774      10.9493      128.660 
6.80321e-05      10.7209      115.705 
0.000176630      1.75570      123.147 
2.30566e-05     0.901998      86.1859 
1.15735e-05     0.474342      71.5651 
0.000123374     0.161555      158.199 
0.000140028      9.00820      103.481 
0.000372018      1.84859      138.289 
0.000173895      7.30061      117.934 
0.000131174      1.76618      110.898 
0.000172700      2.75118      115.168 
5.01668e-05      6.49554      115.145 
0.000341124      10.6453      109.252 
0.000330050      7.84200      106.216 
0.000126564    0.0848528     -135.000 
7.33574e-05     0.818841      118.443 
0.000162394     0.523927      76.7595 
0.000255227      9.22138      108.789 
4.10507e-05     0.874643      84.0939 
0.000139963      3.40906      114.986 
0.000178963      7.60753      115.959 
0.000140383      10.7610      115.779 
0.000209782      2.37777      119.476 
0.000190055      3.12706      118.040 
0.000149570      1.44281      93.5763 
0.000209766      8.03334      104.711 
0.000236558      4.80234      104.470 
9.45099e-05     0.700357      99.8658 
8.11831e-05     0.845340      117.474 
4.36835e-05     0.878237      82.1467 
0.000154854      7.41947      101.901 
0.000194961      2.24900      80.7890 
0.000167095      13.4740      122.452 
0.000153149      3.75300      124.579 
4.28377e-05      4.39528      100.620 
6.29560e-05      11.6395      114.517 
0.000165411      11.9906      123.054 
8.73236e-05      2.77318      95.5872 
0.000147821      8.87118      118.038 
2.44292e-05     0.108167     -146.310 
4.14208e-05      13.2860      121.896 
0.000123697      8.12801      112.116 
9.92741e-05      9.39244      107.856 
4.67447e-05      8.59027      111.727 
8.41398e-05      9.03737      103.437 
0.000113746     0.859593      119.249 
8.27568e-06      3.17547      112.203 
0.000181395      1.87110      138.900 
9.07133e-05      11.0693      111.628 
8.31696e-05      1.44125      92.3859 
4.60889e-05      13.4903      120.614 
5.26263e-05      2.01559      75.3432 
0.000106359      10.6071      109.152 
7.56302e-05      4.36033      100.305 
3.72949e-05      3.52892      115.694 
6.77498e-05      7.62071      116.162 
7.51122e-05      11.4177      117.036 
8.13777e-05      10.7741      115.923 
7.41698e-05      9.24978      108.729 
4.48954e-05      8.49721      110.674 
2.95474e-05     0.339411      45.0000 
0.000102445      9.29409      127.129 
5.18720e-05      13.2702      121.786 
6.60147e-05      11.1431      127.672 
5.15210e-05     0.882836      80.2176 
7.30691e-05      12.2321      122.989 
7.64518e-06      3.40523      104.281 
1.49680e-05      7.65000      118.072 
1.48442e-05      7.31471      118.142 
4.35852e-05      3.30667      86.3588 
1.44587e-05      8.76970      105.272 
2.90048e-05      3.44177      104.642 
2.86504e-05      7.71706      118.059 
3.56228e-05      3.91532      120.888 
2.81453e-05      4.86342      132.250 
1.40972e-05      2.33692      119.197 
2.79779e-05      13.3217      120.145 
7.10162e-06      13.4326      122.412 
2.10246e-05      5.73808      111.468 
1.40802e-05      11.4581      117.102 
1.41054e-05      3.77774      124.321 
1.38431e-05      1.32034      68.6821 
