! Center RA: 12 21 31.69052,  Dec: +28 13 58.50011 (2000.0)
! Established model.
! Flux (Jy) Radius (mas)  Theta (deg)  Major FWHM (mas)  Axial ratio   Phi (deg) T \
! Freq (Hz)     SpecIndex
  0.134344      0.00000      0.00000 
 0.0635514    0.0202604      90.0000 
 0.0158197    0.0286526      45.0000 
0.00408690     0.161111      82.7757 
0.00136652     0.181229      83.5812 
0.00277526    0.0446338      63.0042 
0.00307839     0.200353      90.0000 
0.00639225     0.753177      106.973 
0.00599198     0.219863      90.0000 
0.00156024     0.240977      94.8229 
0.00201151     0.728215      105.970 
0.00262742     0.842640      112.294 
0.00128877     0.401929      95.6787 
0.00243593     0.861421      111.783 
0.00190540    0.0202604      0.00000 
0.00254853     0.422095      95.4065 
0.00158588     0.880267      111.293 
0.00211938     0.722903      104.426 
0.00562866    0.0202604     -90.0000 
0.00123118     0.201375      84.2257 
0.00218771     0.887825      112.512 
0.00593227     0.441522      95.1680 
0.000229915     0.905879      112.039 
0.000225081     0.924690      111.568 
0.000221384     0.943561      111.116 
0.000643114     0.961787      110.697 
0.000612324     0.973929      109.161 
0.000528258     0.220795      84.7351 
0.00112873     0.993090      108.777 
0.000195662     0.980766      110.279 
0.000194753     0.824622      112.808 
0.00108955     0.204262      78.7726 
0.000193157     0.698386      103.230 
0.00545702    0.0397705     -90.0000 
0.00267670     0.832685      114.094 
0.000181438     0.679409      103.606 
0.000180812     0.850533      113.557 
0.000180331     0.260423      94.4620 
0.00166543      1.01158      108.422 
0.000349447     0.635505      102.756 
0.000932127     0.616492      103.157 
0.00155818     0.209153      73.3204 
0.00101478     0.596781      103.599 
0.000154714      1.01816      109.503 
0.00247262      1.03082      108.066 
0.00270609     0.440193      92.6380 
0.00198950     0.215843      68.1616 
0.00115826     0.592344      101.694 
0.000606968     0.841160      115.353 
0.000603619     0.822896      115.958 
0.00414225    0.0600310     -90.0000 
0.00287621     0.612198      101.310 
0.000360671      1.03728      109.130 
0.00271257      1.05010      107.723 
0.000910454     0.831621      117.166 
0.00192516     0.223834      63.5208 
0.000356935     0.806301      119.738 
0.000171537     0.823954      119.039 
0.000487979      1.05645      108.770 
8.35368e-05     0.802162      94.2918 
0.000243678     0.799236      121.720 
0.000160159     0.821137      92.7761 
0.000232950     0.420705      92.7603 
0.000155782     0.793353      123.660 
0.00174365    0.0802914     -90.0000 
0.000696918     0.840624      92.7117 
0.000726455      1.06870      107.404 
0.000151004     0.771858      126.580 
0.000359139     0.768771      128.660 
0.000138348     0.867194      115.966 
0.000637773     0.381773      95.9795 
0.000522386     0.860182      91.3497 
0.000397428     0.765647      130.747 
0.000446320      1.07494      108.435 
0.000552084     0.608549      99.4391 
0.000245682     0.885454      115.392 
0.000419696     0.250509      61.3621 
0.000125447     0.779022      131.876 
0.000123066      1.08889      97.4042 
0.000413334     0.777987      133.984 
0.000175430      1.10660      96.2286 
0.000356098     0.859943      90.0000 
0.000173662      1.08152      109.453 
9.59597e-05     0.913801      100.073 
0.000550061     0.624998      97.3810 
0.000546544     0.917561      101.319 
0.000263150     0.340529      86.5891 
0.000339994     0.921752      102.554 
0.000416042     0.320306      86.3734 
0.000399330     0.342244      83.3269 
0.000163076     0.926189      103.732 
7.97482e-05     0.917698      106.434 
0.000156157     0.910821      109.241 
0.000577884     0.839927      91.3822 
0.000662199     0.322129      82.9081 
0.000300396     0.895778      113.709 
7.26858e-05     0.894329      116.565 
7.19857e-05     0.961344      102.029 
0.000543827      1.09135      116.107 
0.000139827     0.885686      118.324 
0.000341751     0.302778      82.4523 
6.70745e-05     0.878166      120.049 
6.66790e-05     0.992954      99.2630 
0.000196750     0.282706      81.9129 
0.000194458     0.839683      90.0000 
0.000190645     0.871214      121.869 
0.000366652     0.401929      84.3213 
6.40117e-05     0.990000      98.1485 
6.37743e-05     0.243395      80.5958 
0.000536851      1.10008      117.019 
6.12585e-05      1.01006      97.9856 
0.000234967     0.865779      123.690 
5.98776e-05    0.0446338     -63.0042 
0.000173925      1.00745      96.8445 
0.000965115    0.0633577     -71.3505 
0.000569395     0.422095      84.5935 
5.55615e-05     0.860182      125.520 
0.000109209     0.860182      88.6503 
0.000520190      1.11816      116.548 
0.000159264      1.00523      95.6978 
5.42418e-05     0.843774      126.320 
5.29217e-05     0.840517      128.220 
0.000152349     0.824695      129.091 
5.15578e-05     0.880437      88.6814 
0.000191684      1.04481      95.4813 
0.000308862     0.572519      102.105 
0.000278792     0.881102      87.4129 
4.86838e-05     0.809071      129.996 
0.000322760      1.13565      116.108 
0.000186006     0.807634      131.987 
0.000658653    0.0828082     -75.8378 
9.26824e-05     0.120062      90.0000 
4.64047e-05      1.02055      124.637 
0.000480067     0.424483      81.8699 
0.000289858     0.792690      132.967 
0.000210888      1.04313      94.4145 
0.000238720      1.01639      126.202 
8.51443e-05    0.0828082      104.162 
0.000368061      1.15388      115.665 
0.000158362     0.882249      86.0984 
0.000153991    0.0720098      123.524 
0.000155382    0.0896014     -63.6495 
7.57749e-05     0.577108      104.072 
0.000215389      1.06333      94.3305 
7.41844e-05     0.901714      86.1828 
0.000356021      1.17217      115.236 
0.000316695     0.791661      135.000 
0.000633486     0.107434     -68.2729 
3.54150e-05     0.558204      104.559 
0.000103079    0.0720098      146.476 
0.000228827     0.903290      84.9004 
0.000272470     0.563425      106.480 
0.000217443      1.02804      127.079 
9.93624e-05     0.427819      79.1828 
0.000370494      1.18985      114.836 
6.38570e-05     0.260038      67.4310 
3.24858e-05    0.0633577      161.350 
0.000260165      1.08147      93.1820 
9.13559e-05    0.0828082      165.838 
0.000478769     0.777987      136.016 
0.000119625     0.446997      79.6521 
5.87404e-05     0.286050      65.1829 
2.97615e-05    0.0802914      180.000 
0.000191593     0.905232      83.6703 
0.000242997     0.116465     -58.9729 
0.000135120    0.0998015      180.000 
8.10167e-05     0.295127      61.6104 
0.000283775      1.20827      114.432 
0.000129266      1.02448      128.666 
0.000102810     0.450910      77.2126 
0.000122274     0.557279      111.071 
0.000187986     0.121759     -170.422 
0.000340611      1.10170      93.1235 
4.98527e-05     0.322315      60.2717 
0.000209004     0.134233     -63.4349 
0.000205270     0.907689      82.3991 
0.000115732     0.332828      57.2415 
0.000113433      1.04038      127.969 
6.98732e-05      1.21679      115.301 
6.44498e-05     0.475398      75.3715 
2.27027e-05      1.22674      114.041 
0.000147050     0.564587      112.919 
0.000189562      1.23513      114.899 
8.43139e-05     0.344213      54.4042 
8.34287e-05     0.141777     -171.784 
0.000230279     0.144435     -56.2274 
2.11984e-05     0.764056      137.109 
0.000329699      1.03726      129.540 
0.000447547      2.98208      119.319 
0.000260371     0.779022      138.124 
0.000250323     0.910591      81.1354 
7.87294e-05     0.372066      53.7772 
0.000334071     0.164706     -166.027 
0.000212692      1.25286      114.523 
0.000507522      2.45403      96.0732 
7.42054e-05     0.563176      117.453 
0.000268541     0.384386      51.3402 
0.000756153      3.31223      118.882 
0.000295805     0.572799      119.251 
1.72028e-05      2.69295      111.804 
0.000235466      2.67415      111.966 
0.000208087     0.156126     -50.2649 
4.88982e-05     0.396866      49.1402 
0.000166523     0.553458      40.6013 
0.000125128      1.27132      114.144 
0.000333814     0.913801      79.9266 
0.000322645      1.12193      93.0672 
0.000161898      3.16863      108.774 
0.000508724      1.86826      105.515 
0.000164131      2.45204      95.6199 
0.000487582      3.17521      109.120 
1.42676e-05      1.05296      128.838 
0.000328994      1.04979      130.361 
7.64952e-05      1.27974      114.972 
0.000337576     0.596454      39.5379 
0.000152308     0.781108      140.223 
0.000184186     0.184432     -167.547 
0.000563056      4.15156      115.078 
0.000677981      2.47146      95.5756 
8.28116e-05     0.169793     -45.0000 
0.000285929      2.65537      112.129 
3.58131e-05      2.29101      146.029 
0.000274353     0.582967      120.989 
0.000774995      2.28528      145.339 
2.14368e-05     0.172194     -54.5784 
5.02505e-05      1.28983      113.776 
0.000150785     0.184676     -49.4492 
0.000156877      2.97409      119.838 
0.000262253      1.88199      104.784 
1.81086e-05      1.30771      113.432 
0.000180208      1.06302      131.194 
0.000125396     0.209153     -163.320 
0.000181065     0.917561      78.6809 
8.64333e-06      1.31851      112.274 
0.000160654      3.32000      118.424 
1.56272e-05      1.19850      115.715 
1.63286e-05      1.32941      111.177 
8.07408e-05     0.784101      142.231 
0.000102149      1.75287      106.565 
2.26605e-05      1.34124      110.057 
9.60705e-05     0.198446     -45.0000 
9.49780e-05      2.63731      112.289 
1.39473e-05      1.35358      108.957 
7.49429e-05     0.640096      38.6703 
3.20731e-05      1.36592      107.917 
0.000102656      1.06150      132.737 
7.62430e-05      1.89658      104.036 
2.38230e-05      1.12103      92.0331 
1.19790e-05      2.46958      95.1077 
2.28726e-05      1.37920      106.857 
1.70638e-05     0.234065     -159.938 
7.32787e-05      3.32206      119.188 
-7.89617e-05      3.51933      121.521 
1.12528e-05     0.588377      125.291 
5.50447e-06      1.73346      106.756 
-0.000737977      6.91969     -67.2167 
-0.000603720      6.27269      111.901 
0.000666445      1.77427      50.0269 
0.000603223      7.07080      61.2590 
-0.000251431      10.0615     -130.242 
-0.000578316      4.87509      104.494 
0.000374545      10.5333      148.903 
0.000126436      8.90877     -119.156 
0.000161148      7.07260      58.6474 
0.000293341      5.67635     -164.889 
-0.000269620      8.05047     -27.2004 
0.000260243      10.1736      83.1119 
0.000149075      3.27736     -84.0466 
-0.000387779      7.05141      81.8449 
0.000418298      6.85948     -44.4105 
0.000409614      4.04505      2.83905 
0.000249534      8.71423     -136.301 
-0.000249575      3.32459      93.1052 
-0.000483204      9.23669     -123.072 
-7.78802e-05      9.59735     -54.1587 
0.000186065      8.88121     -119.105 
-0.000306274      1.33841     -103.818 
-0.000109635      1.31518     -63.8297 
-0.000274362      9.13753      144.084 
-0.000206212      8.48446     -100.595 
0.000275057      7.68038     -141.131 
-0.000234654      6.26150      112.142 
0.000232921      13.0659     -50.9018 
0.000197095      10.2585     -86.5361 
0.000199117      3.27952     -83.6946 
-7.08323e-05      12.0824      136.611 
-0.000131525      3.54474      56.0374 
0.000191467      4.19006      96.8501 
6.72393e-05      10.4739     -158.728 
-0.000158262      9.58593     -54.2532 
-0.000161443      12.1158      40.4485 
0.000126115      7.08991      58.7326 
0.000189145      6.94370      102.476 
-0.000156944      5.21969      90.0000 
0.000250306      9.03974      119.855 
-0.000158770      4.09456     -145.151 
-0.000154157      9.16854     -95.8860 
-0.000153659      9.01770      7.52123 
0.000122744      8.89109     -119.219 
-6.37240e-05      6.93087     -67.4302 
9.28338e-05      13.6027      137.444 
-3.26441e-05      6.88814      117.679 
-9.36725e-05      3.13968     -57.2253 
9.29349e-05      9.12678      28.2507 
-0.000151755      11.8214      137.673 
-9.07931e-05      5.46432      33.0463 
-0.000123017      9.14633      174.227 
0.000120853      6.47999      83.6173 
-9.17799e-05      9.60005      165.644 
0.000121146      9.20663      20.2073 
-6.14417e-05      7.95397     -28.0470 
0.000206881      7.51966     -179.846 
-8.93820e-05      14.0607      46.2693 
-5.99576e-05      10.6205      66.2332 
3.09438e-05      9.97051      81.4650 
3.05195e-05      9.23037      26.2318 
8.80556e-05      7.78236     -64.0946 
-5.88951e-05      4.66956      176.315 
5.90370e-05      9.66825     -56.4752 
5.91754e-05      7.08858      61.3377 
5.80958e-05      6.31572     -53.2404 
8.69908e-05      6.05852     -65.2125 
-5.78753e-05      5.45577      126.955 
2.91409e-05      6.30406     -53.3824 
-5.70557e-05      12.8000      37.3173 
2.90159e-05      9.97353      81.3499 
2.87796e-05      7.66815     -141.245 
-2.86161e-05      8.07666     -26.9436 
-2.86295e-05      9.12085     -16.1701 
2.85451e-05      10.2209      156.593 
2.84310e-05      5.63888      131.547 
2.82272e-05      5.45664     -152.498 
2.81328e-05      5.97828      141.523 
-2.80221e-05      11.3234      118.827 
2.80257e-05      6.77485      70.3368 
-2.79000e-05      14.2289      45.9124 
! Tentative model.
! Flux (Jy) Radius (mas)  Theta (deg)  Major FWHM (mas)  Axial ratio   Phi (deg) T \
! Freq (Hz)     SpecIndex
-0.000241136      8.49746     -111.977 
-0.000335767      3.32770      25.6410 
-3.09632e-05      1.65360     -147.848 
-0.000214306      10.5876      119.664 
0.000171630      9.60042     -7.42112 
-0.000103011      10.4182      28.6807 
-0.000134467      11.0180     -139.196 
-0.000107719      1.68119     -147.633 
-0.000193279      2.43187     -84.3363 
0.000221286      8.39590     -151.237 
-7.97535e-05      9.64616      67.3162 
7.87683e-05      10.1333     -70.6352 
0.000524081      12.5295     -35.9736 
7.80409e-05      6.69669     -139.603 
-7.45519e-05      9.84498     -95.4790 
6.80218e-05      6.91231     -104.237 
-0.000156869      10.9599      120.121 
0.000505610      11.8727      147.381 
-5.19418e-05      11.8458     -125.864 
-9.52163e-05      2.28324     -161.089 
4.99088e-05      6.93663     -104.357 
-2.58593e-05      10.4454      28.7243 
7.18006e-05      6.15766     -55.5873 
0.000249999      6.46000     -61.9275 
2.48248e-05      4.19990      147.445 
-4.72493e-05      8.71277     -110.140 
-0.000183557      11.8179     -125.842 
-2.45819e-05      7.96643      124.568 
-0.000177807      5.64032    -0.609507 
6.97968e-05      1.98283      8.70222 
-0.000324550      8.62132     -101.101 
2.42374e-05      9.82637      147.636 
0.000127020      9.75545     -9.55888 
2.39782e-05      8.38804      79.9762 
-4.55948e-05      8.18315     -112.868 
6.88007e-05      9.31429      20.2249 
-6.62930e-05      9.00944     -62.0697 
-0.000128047      10.2071     -2.13356 
-6.50313e-05      9.73359     -96.0152 
-6.65601e-05      7.96136      124.768 
0.000266641      8.33547     -67.1263 
-8.26805e-05      3.21179     -55.9141 
6.45831e-05      6.72488     -139.584 
2.27080e-05      8.36835      79.9524 
-6.40328e-05      6.42109      44.2428 
-8.20176e-05      9.40740      138.447 
-4.09761e-05      1.67057     -148.213 
-0.000152224      11.8416      140.826 
-8.28322e-05      10.5777      119.570 
0.000431121      9.23978      26.0659 
0.000261098      9.28862      20.1517 
5.64600e-05      8.36488      80.0872 
4.20161e-05      7.61414      81.9976 
-0.000140060      3.35440      25.8012 
-9.63718e-05      7.13753      94.0170 
-0.000122642      5.56291     -178.146 
-9.68475e-05      10.5789     -58.2931 
0.000112740      6.01205      174.081 
2.09636e-05      4.18306      147.298 
-0.000129670      1.29877     -99.7524 
-4.00498e-05      3.16291      29.9696 
-0.000129820      1.30599     -117.350 
-0.000198656      4.62524      25.3462 
-2.06342e-05      9.86489     -95.4679 
-7.63420e-05      10.5175      166.809 
7.72533e-05      12.3810      36.1294 
3.83874e-05      3.18597     -151.504 
3.73717e-05      9.80949      147.574 
3.89876e-05      1.96010      8.21278 
-1.99552e-05      4.66378      169.124 
-5.47785e-05      4.93883      118.018 
-8.77367e-05      7.01364     -73.9424 
7.41426e-05      5.99426      173.871 
0.000150958      7.61139      82.1467 
-0.000104020      2.30868     -160.780 
3.86792e-05      7.55804     -153.096 
-1.95261e-05      9.63846      67.4259 
0.000144125      6.10052     -117.321 
0.000189099      8.42306     -151.183 
-7.15889e-05      4.54229      133.037 
5.11238e-05      6.36396      135.000 
-1.92312e-05      11.3153      154.114 
-5.44554e-05      9.75559     -96.1197 
-0.000176518      10.2271     -2.12939 
1.88498e-05      6.15253     -55.3284 
-0.000132164      10.5951      119.517 
-1.85693e-05      10.9057      25.2962 
-9.53849e-05      11.2973      154.070 
-1.83207e-05      9.88480     -95.4568 
-3.61209e-05      10.8512     -113.115 
0.000230353      7.53116     -153.163 
1.80559e-05      6.02959     -176.767 
-1.79771e-05      8.14923     -112.663 
-6.31234e-05      6.44937      44.2462 
6.95004e-05      10.9179     -155.313 
-1.77503e-05      10.0605     -179.430 
6.59743e-05      12.5015      35.1647 
0.000194027      9.55674     -14.7924 
-1.75724e-05      9.01778     -62.2415 
-6.39420e-05      9.07308     -96.2007 
-1.74909e-05      7.37360     -57.5169 
-7.35249e-05      7.15612      93.8460 
3.26944e-05      7.38823     -80.1807 
-3.28346e-05      3.18025      29.7896 
4.70955e-05      9.60627     -136.603 
0.000344110      10.7102      57.9719 
-4.78192e-05      11.5389     -48.9355 
4.72760e-05      12.4641      36.6492 
-7.39060e-05      12.7506     -129.207 
-0.000176451      7.36288     -57.6482 
-0.000239945      10.5725     -58.1440 
-1.70134e-05      7.97278      124.886 
-0.000217421      12.3366      146.104 
-3.28299e-05      2.43393     -83.8678 
-0.000117426      9.86065     -158.587 
8.47530e-05      5.63879      131.549 
-0.000169714      10.8249     -113.060 
-1.67902e-05      4.96621     -54.8379 
-3.22303e-05      8.27770     -141.967 
-1.66871e-05      9.40574      138.275 
-1.66526e-05      9.02109      111.731 
1.65408e-05      8.24876      78.3904 
4.59376e-05      10.7962     -36.4878 
8.20705e-05      6.75633      70.2777 
-4.59128e-05      9.75775     -96.2364 
0.000169904      10.8914     -155.364 
-5.88376e-05      10.5026      166.678 
-1.63223e-05      9.04604     -31.8980 
0.000178376      11.5176      43.1705 
1.61222e-05      7.13089     -79.0052 
-3.14505e-05      12.1503      141.281 
-5.67470e-05      10.0807     -179.318 
3.04591e-05      12.3531      36.1092 
3.03064e-05      2.55069     -114.555 
-3.03794e-05      10.9324      25.3462 
1.55011e-05      5.62014     -61.5197 
0.000169173      8.10511     -64.5731 
-2.94004e-05      11.8387      140.690 
3.01626e-05      7.03946     -161.102 
-6.81172e-05      9.74495     -163.425 
4.31843e-05      4.20233      88.0908 
-0.000135644      7.92465      96.0847 
-1.51101e-05      4.98257     -54.9703 
-6.88342e-05      3.00273      76.5191 
-5.61142e-05      11.6666      144.348 
1.50246e-05      2.03342     -39.0119 
1.50233e-05      7.77920     -174.245 
1.49994e-05      6.00853     -176.947 
2.84600e-05      9.73827     -118.723 
-1.48887e-05      5.83167     -153.523 
1.47899e-05      8.05633      55.0080 
-2.71767e-05      9.06302     -31.8312 
-5.56957e-05      12.1659      141.340 
1.47057e-05      9.81022      101.883 
-8.06471e-05      2.08959      84.5077 
1.46527e-05      3.94446     -26.8249 
0.000143854      8.11372     -64.4456 
2.65310e-05      2.04607     -39.4470 
0.000103251      10.2761      156.728 
-6.32907e-05      2.33418     -160.478 
0.000154390      7.05839     -161.154 
-6.54265e-05      11.2886      143.719 
6.28692e-05      12.4070      38.1261 
-0.000100236      8.61749     -100.971 
7.85000e-05      9.82570      101.745 
-1.41862e-05      8.26196     -141.882 
-1.42027e-05      5.71080     -7.64768 
-5.27757e-05      9.16419      146.934 
5.22444e-05      12.2672      133.216 
2.76451e-05      5.64588     -61.8917 
-1.40674e-05      9.00995      111.896 
1.40319e-05      7.79910     -174.260 
2.73966e-05      3.93573     -27.2161 
-1.40050e-05      9.03296      107.392 
3.88659e-05      9.80337      147.412 
0.000255720      8.50762     -177.575 
-9.22753e-05      10.9801     -66.3766 
-7.74744e-05      10.6125      119.464 
5.20389e-05      7.06320      61.0399 
-1.38332e-05      3.30297     -2.42927 
-4.02361e-05      9.10160     -16.2048 
-4.02076e-05      6.79841     -85.7823 
0.000122707      8.07272      55.0894 
2.60826e-05      3.73106      154.946 
-3.92989e-05      12.4508      141.915 
2.58529e-05      6.83953     -81.2538 
4.89749e-05      7.21698      137.021 
7.96880e-05      12.5131      35.2396 
-0.000151875      8.92896     -177.432 
1.32817e-05      9.55826      141.883 
-3.67447e-05      4.98754     -55.2903 
1.31948e-05      9.00278      77.8163 
1.31332e-05      2.53251     -114.744 
-3.59162e-05      3.32217     -2.07003 
0.000152775      9.45905      93.6368 
1.29582e-05      7.79359     -86.6163 
-0.000122506      13.2418      129.484 
-3.74869e-05      11.6829      144.405 
2.51889e-05      9.72074     -118.780 
-2.46233e-05      6.48558      14.4648 
-1.27715e-05      11.6347     -55.0806 
3.42311e-05      7.39167     -80.0279 
1.27303e-05      7.05354      61.1821 
-6.70631e-05      5.69098     -7.67448 
-2.47147e-05      4.61671      25.1219 
-5.98313e-05      9.08801     -16.3611 
-7.99502e-05      6.79991     -85.6142 
-4.77312e-05      6.35814      147.460 
6.73499e-05      7.58886      82.2756 
4.62242e-05      8.99858      77.9408 
-5.45079e-05      9.09296     -96.1871 
-0.000132238      9.12219     -178.744 
1.22915e-05      10.9846     -29.9260 
-6.83723e-05      12.4351      141.858 
0.000119691      12.7880      143.202 
-2.42555e-05     0.554617     -64.3590 
3.50848e-05      3.95353     -27.0835 
0.000172789      10.2488      99.7748 
-5.52444e-05      11.5258     -49.0105 
0.000172290      13.3999     -49.1761 
2.32643e-05      7.58380      91.8135 
3.60370e-05      9.26296      20.0782 
-8.83469e-05      12.1784      141.267 
-2.35427e-05      9.84203     -158.545 
-8.98086e-05      10.8425      39.3861 
1.20695e-05      3.77020     -72.7185 
-2.36024e-05      7.36912     -57.8628 
3.46535e-05      3.21279     -65.3494 
-2.35224e-05      11.6298     -54.9434 
-5.53374e-05      9.76412     -163.458 
4.48109e-05      10.9427     -30.1735 
-3.39483e-05      7.17476      93.6760 
-6.60182e-05      2.11149      84.0194 
0.000117020      12.2542     -41.6258 
1.17352e-05      10.8242     -36.5100 
2.27809e-05      4.21222      97.0913 
7.53772e-05      9.91181     -167.057 
-6.39321e-05      8.31404      125.602 
-1.17063e-05      12.7633     -129.277 
-2.30595e-05      11.3987     -44.7157 
5.63677e-05      6.87308     -45.0000 
1.16734e-05      9.56337     -7.57089 
-6.39079e-05      12.8984     -134.372 
-1.16121e-05     0.546260     -66.2505 
3.38747e-05      11.9054      121.046 
-3.34783e-05      10.6300      119.411 
-4.45484e-05      10.7987     -113.004 
9.47149e-05      12.3893      138.927 
9.55534e-05      9.24418      20.1208 
4.33011e-05      3.76431     -73.0092 
-3.33941e-05      10.0320     -95.8356 
2.20386e-05      11.4298      127.893 
-1.13551e-05      10.0213    -0.914825 
-2.19878e-05     0.557136     -68.9625 
-5.32152e-05      8.61805      141.880 
-5.25732e-05      12.7787     -129.220 
5.31097e-05      11.5458      43.1750 
-5.27060e-05      11.7352     -141.782 
-7.29778e-05      6.34129      147.362 
5.28587e-05      7.64924     -73.1286 
7.35354e-05      10.8732     -155.321 
2.22126e-05      12.5457     -35.9199 
4.29756e-05      8.91964     -10.8564 
1.11400e-05      7.79243     -86.7631 
2.15927e-05      7.07107      61.2602 
-2.16804e-05      12.5735     -127.763 
5.25680e-05      10.2656      156.582 
1.10523e-05      9.20491      25.6186 
1.10377e-05      9.79733      32.7493 
-7.20943e-05      8.42143     -118.513 
-2.08598e-05      10.9590      25.3959 
-1.09472e-05      11.2843      143.577 
-1.09380e-05      9.97409     -125.698 
-3.18339e-05      9.06883     -16.3967 
-4.10558e-05      11.7920      137.543 
3.19068e-05      7.77794      145.370 
3.15344e-05      9.23732      69.9957 
-1.07989e-05      8.39431     -118.458 
6.12126e-05      11.9226      120.997 
5.13837e-05      9.78051      32.8127 
3.16461e-05      12.0540      55.8881 
-5.19517e-05      11.4131     -44.5030 
-4.10079e-05      10.2278     -2.24135 
-3.12259e-05      9.79179      17.4727 
-3.10204e-05      6.58923     -174.601 
5.14650e-05      8.06129      55.2060 
3.05279e-05      10.2473      156.537 
3.10825e-05      6.87314     -44.7642 
-3.08744e-05      10.0020     -125.724 
-5.05780e-05      8.39507      96.5663 
1.04898e-05      9.77188     -9.42377 
3.07499e-05      10.9254     -30.2262 
-4.05227e-05      11.2962      118.789 
-2.06709e-05      2.11367      83.4802 
1.04295e-05      9.21358      25.7307 
-3.03381e-05      10.0738     -95.9256 
-3.04549e-05      10.6376      119.264 
4.07702e-05      10.2588     -86.5351 
1.04010e-05      6.45898     -62.3241 
-1.03816e-05      9.86797     -158.479 
4.05269e-05      9.43909      93.6445 
1.03374e-05      11.5030      43.2387 
-4.02976e-05      10.8552      39.4677 
2.02924e-05      4.32634      60.3537 
2.00473e-05      10.8403     -36.4471 
-1.02731e-05      10.9573      119.888 
2.99141e-05      9.18688      25.6725 
-1.02214e-05      10.7909     -112.906 
-1.98541e-05      12.4193      141.801 
2.98723e-05      9.52758     -2.28580 
-1.01160e-05      9.30978      145.149 
2.99381e-05      12.0817      55.8627 
1.99531e-05      9.50673      162.366 
1.00756e-05      10.9182     -30.3698 
1.98334e-05      8.93928     -10.8323 
-1.98049e-05      12.2655     -43.4804 
-2.96781e-05      12.6680     -140.252 
1.00128e-05      9.76862     -9.30804 
-1.00160e-05      12.5858     -127.835 
-9.96134e-06      8.38480     -118.338 
1.97742e-05      7.58620      82.4253 
9.93206e-06      9.19411     -23.0513 
-9.94119e-06      8.42095     -13.7392 
-9.90694e-06      11.6183     -55.0241 
-9.90856e-06      11.4274     -44.4327 
9.88685e-06      9.44104     -168.761 
-9.84306e-06      4.70523     -14.2725 
-9.84916e-06      2.37857     -160.346 
-1.95450e-05      10.7856      19.6109 
9.83798e-06      6.88735     -44.6471 
-9.85816e-06      9.98577     -125.791 
9.80024e-06      4.31648      60.5844 
-9.76890e-06      11.5278     -49.1507 
9.77495e-06      7.60263      91.5074 
-9.73049e-06      9.78329     -163.491 
9.73181e-06      12.0786     -47.8859 
