! Center RA: 12 21 31.69052,  Dec: +28 13 58.50011 (2000.0)
! Established model.
! Flux (Jy) Radius (mas)  Theta (deg)  Major FWHM (mas)  Axial ratio   Phi (deg) T \
! Freq (Hz)     SpecIndex
 0.0404064     0.109202     -74.0546 
 0.0132468     0.106066     -81.8699 
0.00398501    0.0335410     -26.5651 
0.00762128    0.0300000      0.00000 
0.00561917     0.120934     -82.8750 
0.00422293    0.0912414     -80.5377 
0.00263363    0.0764853     -78.6901 
0.000405381    0.0424264     -45.0000 
0.00335051     0.105000     -90.0000 
0.00524949    0.0335410      26.5651 
 0.0165751     0.120000     -90.0000 
0.000666840     0.150748      95.7106 
0.00625587     0.165000      90.0000 
 0.0110063    0.0212132      45.0000 
0.00498313     0.165680      95.1944 
0.00807340    0.0335410      63.4349 
0.00464050     0.180624      94.7636 
0.00600967     0.195576      94.3987 
0.00484305    0.0300000      90.0000 
0.00255750     0.135000     -90.0000 
0.00390611     0.135831     -83.6598 
0.00179694     0.210535      94.0856 
0.00296515    0.0450000      90.0000 
0.000411213     0.225499      93.8141 
0.000456198     0.240468      93.5763 
0.00277986     0.152971      101.310 
0.00131288     0.303356      98.5308 
0.00194368     0.320663      100.784 
0.000713946     0.106066     -45.0000 
0.00203929     0.150000     -90.0000 
0.000340417    0.0960469     -38.6598 
0.00205726     0.338415      102.804 
0.00169395     0.167705      100.305 
0.000983104     0.117154     -39.8056 
0.00203049     0.353058      102.265 
0.000268964     0.108167     -33.6901 
0.00218859     0.165680     -95.1944 
0.00148535     0.129035     -35.5377 
0.000319662     0.226991      97.5946 
0.000387596    0.0600000      90.0000 
0.000233859     0.367730      101.768 
0.000225605     0.407492      96.3402 
0.000430038     0.241868      97.1250 
0.000214545     0.171026      105.255 
0.000606255     0.421070      94.0856 
0.00133021     0.593401      106.144 
0.000523253     0.356546      104.621 
0.000257271     0.256759      96.7098 
0.000186662      2.22010      107.700 
0.000122980     0.120934     -29.7449 
6.11814e-05     0.165000     -90.0000 
0.000284911     0.439118      97.8533 
9.40367e-05     0.142302      108.435 
0.000470747     0.138293      102.529 
0.000515238     0.456207      99.4623 
0.000915787     0.123693      104.036 
0.000520908     0.471010      99.1623 
0.000325188     0.488365      100.620 
0.000323347    0.0150000     -90.0000 
0.000482700     0.288531      98.9726 
7.87488e-05     0.538540      102.875 
0.000378908    0.0300000     -90.0000 
0.000230913     0.556619      104.036 
0.000368543     0.574913      105.124 
0.000216253      2.21045      108.189 
0.000215839    0.0450000     -90.0000 
0.000345806     0.473630      100.954 
0.000208072    0.0474342     -71.5651 
0.00192360      2.21518      108.558 
0.000729515     0.135831      96.3402 
0.000382626    0.0618466     -75.9638 
0.000172979     0.120934      97.1250 
0.000561903     0.612066      107.103 
0.000509798     0.458912      101.310 
0.000325594     0.444213      101.689 
0.000507687     0.630892      108.004 
0.000112758     0.429535      102.095 
0.000261081     0.649865      108.853 
0.000609634     0.120000      90.0000 
0.000150055     0.668973      109.654 
9.74386e-05     0.688204      110.410 
0.000184177    0.0474342     -18.4349 
4.79429e-05     0.707549      111.125 
0.000232737     0.713092      112.249 
0.000349854     0.732700      112.891 
0.000217789      2.20582      109.051 
4.27675e-05    0.0450000      0.00000 
4.20083e-05      2.22471      108.068 
0.000402631     0.752396      113.499 
0.000162188    0.0618466     -14.0362 
0.000123417      2.20168      109.916 
0.000156085      2.23440      107.583 
0.000267174      2.19277      110.418 
0.000185172     0.106066      81.8699 
0.000403458     0.772172      114.075 
7.59155e-05    0.0600000      0.00000 
0.000213157    0.0764853     -11.3099 
0.000275281      2.24424      107.103 
3.66642e-05     0.138293     -77.4712 
0.000909927     0.152971     -78.6901 
0.000106761      2.19805      110.785 
7.16356e-05      2.76688      110.302 
0.000239962      2.77212      110.592 
0.000225809     0.305941      101.310 
0.000234852     0.785891      113.629 
0.000617232      2.18403      110.925 
0.000166812      2.87926      108.529 
0.000385792      2.40973      108.886 
0.000132249    0.0948683     -18.4349 
0.000158056     0.485824      98.8807 
0.000151533     0.120934      82.8750 
3.25865e-05      2.75808      110.702 
0.000218349      2.89348      108.435 
3.22153e-05      2.77743      110.882 
0.000126595     0.792023      114.624 
0.000125906     0.468855      97.3524 
6.37472e-05    0.0912414     -9.46232 
0.000359160      2.76342      110.993 
0.000212037     0.947378      113.318 
0.000352781     0.109202     -15.9454 
0.000310729      2.23988      106.736 
0.000259988     0.778412      115.084 
0.000230868     0.483735      97.1250 
5.87422e-05      2.89826      108.716 
0.000169460     0.961171      112.964 
5.65174e-05     0.342053      105.255 
0.000193562      2.91247      108.622 
0.000411817      2.76883      111.283 
0.000185343     0.482105      95.3558 
0.000211072     0.128160     -20.5560 
7.80132e-05     0.286575      96.0090 
0.000610829      2.18943      111.291 
0.000426999     0.967122      113.782 
0.000104153     0.109202      74.0546 
2.69374e-05     0.560446      105.524 
0.000204806     0.784889      116.075 
7.50992e-05     0.360624      106.928 
0.000885379     0.167705     -79.6952 
0.000199677      2.91730      108.901 
2.59860e-05     0.563649      115.201 
2.53102e-05     0.465967      93.6914 
0.000167920      2.23560      106.368 
0.000483306     0.142302     -18.4349 
9.71458e-05     0.570197      116.565 
0.000276780     0.270416      93.1798 
9.74560e-05     0.480937      93.5763 
7.31899e-05      2.41463      109.223 
7.15336e-05     0.465242      91.8476 
0.000205683     0.791596      117.051 
0.000210636     0.123693      75.9638 
0.000365524      2.77431      111.571 
9.19884e-05      2.93149      108.806 
0.000301085      2.43375      109.440 
0.000156073     0.480234      91.7899 
4.53371e-05     0.577062      117.897 
0.000561345     0.986927      114.228 
0.000706665      1.02231      67.5741 
0.000226665      2.21701      106.105 
0.000380412      2.93636      109.083 
4.34168e-05     0.556821      117.255 
0.000220440     0.798530      118.009 
0.000163464     0.480000      90.0000 
0.000157204     0.563848      118.610 
0.000219719     0.161555     -21.8014 
3.99301e-05     0.365274      109.179 
1.99095e-05     0.785318      118.523 
0.000289009      1.90311      110.292 
0.000436160      2.20887      111.512 
0.000286249     0.480234      88.2101 
3.81741e-05     0.156605     -16.6992 
0.000128863      2.77986      111.859 
0.00173126     0.175570     -19.9831 
1.85254e-05     0.792591      119.476 
0.000226752     0.128160      69.4440 
1.83111e-05     0.577062      98.9726 
8.90206e-05      2.79379      111.744 
0.000106501     0.805683      118.951 
0.000135631     0.571183      119.932 
0.000538654      1.01669      68.3556 
0.000114960      2.21289      105.732 
0.000199192      2.94130      109.359 
3.45233e-05     0.574913      97.4959 
9.34082e-05     0.255000      90.0000 
0.000272058     0.993177      115.017 
3.29449e-05     0.384480      110.556 
0.000114932     0.813050      119.876 
0.000285680      2.43878      109.772 
0.000187130     0.171026     -74.7449 
0.000220528      2.79938      112.029 
3.24352e-05     0.589788      97.3058 
0.000579016      1.89796      109.867 
0.000180006     0.480937      86.4237 
3.13749e-05     0.944524      100.061 
0.000332982      3.00364      101.815 
6.09330e-05     0.550727      119.358 
4.59417e-05     0.820625      120.784 
6.07389e-05      5.55553      147.683 
4.53473e-05     0.588069      95.8560 
0.000208387     0.959297      99.9042 
5.92604e-05      2.94631      109.634 
6.93359e-05     0.390000      112.620 
0.000138817     0.826226      86.8779 
5.82486e-05     0.828402      121.675 
0.000112327      2.19046      105.083 
0.000212721      5.56821      147.766 
0.000122889     0.558234      120.700 
4.30526e-05      2.80504      112.313 
0.000188158     0.999612      115.796 
4.20881e-05      2.98895      101.874 
0.000354228     0.185540     -75.9638 
6.87522e-05      2.84494      104.036 
0.000110326      2.93038      111.311 
4.19588e-05     0.586728      94.3987 
1.41026e-05     0.886143      123.959 
8.08614e-05     0.142302      71.5651 
0.000164728      2.58488      111.801 
7.97663e-05      1.03326      80.8112 
1.39661e-05      2.85950      103.963 
4.14833e-05     0.906973      124.216 
2.75916e-05     0.465967      86.3086 
0.000133437      2.21442      111.873 
4.06399e-05      2.79117      112.430 
0.000117497     0.915492      124.992 
1.34912e-05      2.08262      109.348 
7.78265e-05     0.585769      92.9357 
0.000101505      2.07770      108.958 
0.000145445      2.85591      103.671 
0.000186710     0.467172      84.4725 
0.000101357      2.93586      111.584 
9.84238e-05      2.18661      104.704 
7.40208e-05      2.79693      112.714 
0.000512542     0.827179      85.8404 
6.74657e-05     0.240468      86.4237 
3.65294e-05     0.409695      113.749 
0.000135099     0.134164      63.4349 
0.000150298     0.566039      122.005 
0.000151517     0.936389      125.218 
0.000146769      1.03097      81.6341 
0.000118420      1.07760      106.164 
1.23002e-05     0.585192      91.4688 
0.000211923      1.00623      116.565 
7.05665e-05      2.94982      111.477 
5.80937e-05     0.600000      90.0000 
0.000278754      5.58091      147.848 
4.67963e-05      2.94142      111.856 
3.47148e-05      2.07288      108.566 
0.000116406      3.12508      104.170 
8.81586e-05      2.16463      104.036 
8.63487e-05      2.80275      112.997 
0.000139346      1.08187      106.928 
1.14159e-05     0.600750      87.1376 
2.23527e-05     0.602993      84.2894 
0.000408854     0.182483     -80.5377 
3.29127e-05      2.06815      108.172 
3.16864e-05     0.415963      115.641 
0.000188859      2.84134      103.743 
9.48673e-05      2.95534      111.747 
1.09176e-05     0.604669      82.8750 
0.000249703     0.945119      125.961 
0.000116053     0.621550      81.6743 
3.13013e-05      2.23394      112.087 
1.05862e-05      2.06041      106.060 
0.000146488     0.574130      123.275 
2.05139e-05      2.06352      107.776 
1.03785e-05      2.16104      103.650 
0.000282236      1.89291      109.440 
0.000195459      1.09623      106.699 
1.02757e-05      2.14647      103.745 
0.000153827      2.44390      110.103 
5.72724e-05      2.05631      105.658 
0.000105752      2.14295      103.355 
0.000218654      2.23963      112.443 
0.000264330     0.468855      82.6476 
0.000122175      1.02890      82.4606 
3.79123e-05     0.600187      91.4321 
0.000141135      2.96093      112.017 
7.59689e-05     0.129035      54.4623 
7.55167e-05      2.80865      113.279 
5.45546e-05     0.422670      117.474 
0.000107939      1.17154      92.9357 
0.000121757      2.59049      112.109 
1.86524e-05      2.05899      107.379 
0.000336360      3.13963      104.103 
7.86981e-05      2.85241      103.379 
0.000102788      2.13954      102.965 
0.000166008      1.01303      117.324 
0.000143590      3.13963      112.767 
3.46117e-05      2.05456      106.980 
5.08011e-05     0.141510      57.9946 
0.000112123     0.582495      124.509 
0.000172827      2.81461      113.559 
0.000641216      2.55026      103.955 
0.000343375     0.226991      82.4054 
8.50085e-05      2.96659      112.286 
0.000117368     0.623899      80.3112 
0.000350939     0.171026     -15.2551 
0.000102555      5.52073      148.556 
0.000621659      1.18652      92.8986 
0.000142679      1.10064      107.447 
6.82996e-05     0.409420      118.443 
8.26033e-06      2.05232      105.255 
5.31232e-05     0.766176      113.051 
4.69271e-05      2.05023      106.579 
0.000129326      2.12159      102.661 
0.000136568     0.594916      123.690 
0.000760122      2.83782      103.449 
0.000278974      3.14546      113.019 
3.04739e-05      5.59361      147.929 
0.000101489     0.138293      49.3987 
7.80642e-06     0.429796      119.249 
0.000136848     0.954005      126.690 
2.26169e-05      1.92544      117.364 
0.000218571      2.24540      112.797 
0.000198385      1.91912      117.967 
2.85210e-05      2.04600      106.176 
9.35109e-05      1.88798      109.011 
8.76042e-05     0.626598      137.911 
4.13979e-05      1.04377      82.5686 
0.000144609      5.60159      147.799 
0.000215287      2.11835      102.265 
7.76936e-05      1.02000      118.072 
4.86685e-05      2.95271      112.396 
0.000148595     0.416773      120.256 
5.19688e-05      2.04187      105.772 
0.000173759     0.760427      112.011 
0.000144704      1.10523      108.189 
0.000220425      2.95846      112.665 
2.60963e-05     0.471010      80.8377 
5.75612e-05      2.44909      110.433 
0.000175712      1.04581      81.7537 
0.000101231     0.626598      78.9591 
0.000154048     0.200125     -77.0054 
0.000121015     0.456207      80.5377 
5.41338e-05      1.20906      127.439 
0.000132472      2.82064      113.839 
0.000234199     0.637809      138.814 
1.20589e-05      3.15136      113.270 
9.13276e-05      2.59617      112.416 
6.33214e-05      2.03785      105.366 
8.30586e-05      5.51292      148.689 
8.40436e-05      1.88314      108.579 
0.000147542      3.15927      112.913 
0.000184121      1.91301      118.575 
2.80672e-05      1.02638      116.940 
0.000278057      1.23009      127.569 
0.000166489      2.11521      101.868 
2.57440e-05     0.782304      122.471 
0.000217397      2.25125      113.148 
9.35566e-05      2.03392      104.959 
0.000149803      1.11000      108.925 
5.35022e-06      1.90712      119.186 
3.57337e-05      1.89855      121.430 
7.52182e-05      1.01967      116.188 
3.48853e-05      1.09582      109.179 
0.000231136     0.458912      78.6901 
5.81595e-05      1.87842      108.146 
7.61098e-05     0.792023      65.3764 
0.000220383      3.16514      113.163 
6.24690e-05      1.90642      121.814 
0.000111375     0.963042      127.405 
0.000107402      2.07353      118.048 
0.000164408     0.204022     -72.8973 
0.000100294     0.586728      122.471 
5.58654e-05      1.87380      107.710 
0.000124308      2.82673      114.117 
6.54451e-05      2.03010      104.550 
1.06716e-05      2.45437      110.761 
0.000195165      2.11218      101.470 
9.14927e-05      5.50011      148.607 
5.89198e-05      1.89986      118.791 
0.000183391     0.768960      110.556 
0.000467650      1.23929      128.118 
8.09162e-06     0.790459      123.389 
4.87267e-05      2.58231      112.543 
0.000124276      1.01314      115.427 
3.28887e-05     0.641327      79.2157 
8.06591e-06      1.04807      80.9421 
0.000109901      3.15418      104.036 
5.69969e-05      1.86929      107.272 
7.07012e-05      1.90169      122.437 
9.68911e-05     0.424529      122.005 
0.000165009     0.798389      64.3978 
8.39982e-05      1.06289      81.0694 
3.97138e-06      1.10084      109.916 
3.96534e-05     0.825545      87.9174 
0.000329882      1.11496      109.654 
5.11035e-05      1.91607      99.4623 
0.000101521      1.90589      118.179 
1.64466e-05     0.777978      123.996 
5.65388e-05      2.94463      112.777 
6.28592e-05      1.86489      106.832 
1.03913e-05      2.02744      105.887 
6.89582e-06      5.50794      148.474 
9.36107e-05      1.91366      99.0193 
3.28336e-05      3.20066      101.626 
4.92786e-05     0.233345     -45.0000 
5.72515e-05      2.58810      112.850 
-0.000406658      5.49199      145.572 
0.000190503      2.23157      112.946 
1.94900e-05      1.79725      123.425 
6.54493e-06      2.03160      106.294 
9.46547e-06     0.644302      77.9052 
2.49196e-05      2.83290      114.394 
0.000188475      5.35996      147.689 
0.000128395      3.17309      112.807 
1.52273e-05      5.58890      147.718 
0.000241831      1.20234      93.5763 
0.000244562      3.32344      110.889 
8.17542e-05     0.462088      76.8660 
0.000146394      1.78475      123.690 
4.69579e-05      3.21536      101.572 
3.13925e-06      2.03586      106.699 
6.30221e-05     0.607454      122.905 
6.35464e-05      2.09383      118.217 
2.42278e-05      1.86060      106.390 
5.83718e-05      1.90978      122.816 
3.04481e-06      2.04924      107.904 
0.000120281      1.06066      81.8699 
8.00255e-05     0.649173      139.686 
3.83732e-05      2.45973      111.088 
3.16797e-05      1.84201      106.074 
2.02197e-05      2.82550      114.796 
8.57285e-06      2.05390      108.303 
2.21211e-05      1.76165      128.431 
4.62702e-05     0.825136      88.9584 
9.97263e-05     0.244182     -47.4896 
0.000121579      2.10925      101.070 
2.93704e-05      2.83182      115.072 
0.000100541      1.83791      105.624 
3.79102e-05      2.93885      112.507 
3.89020e-05      1.89885      99.0903 
0.000124192      3.31106      103.092 
2.85557e-05      1.89268      118.393 
2.13751e-05      2.05866      108.699 
9.43378e-05      3.20372      101.889 
1.23610e-05      5.59693      147.588 
0.000242625     0.763823      109.502 
7.53607e-05     0.465725      75.0686 
8.46514e-05      1.60612      124.729 
7.59440e-05     0.411886      123.111 
6.77709e-05      2.59396      113.155 
3.05383e-05      3.17107      113.412 
2.44732e-05      2.83821      115.346 
5.36157e-05      1.91795      123.193 
0.000159352     0.342710      156.801 
9.98196e-05      1.12009      110.376 
5.73139e-05      1.91137      98.5752 
9.63823e-05     0.804984      63.4349 
9.93184e-06      2.06352      109.093 
3.35493e-05      1.89654      98.6428 
9.15368e-05      2.84467      115.619 
4.94769e-05      1.83393      105.173 
2.95356e-05      2.18341      102.700 
2.25860e-06      1.77102      128.811 
5.95395e-05     0.469814      73.3008 
1.78017e-05      2.10096      118.578 
-0.000188566      1.27720      86.6335 
2.17087e-06      5.58427      147.505 
2.13638e-06      2.85698      102.431 
2.49025e-05      1.75935      129.118 
1.62048e-05      1.82267      103.808 
1.18269e-05      3.32571      109.497 
7.47726e-06      5.59235      147.376 
6.04999e-05      1.69765      117.924 
2.64353e-05      1.92620      123.566 
2.66511e-05      2.59218      113.895 
1.97882e-06      2.44574      111.214 
5.93189e-05      2.94703      112.126 
7.18343e-05      1.81915      103.349 
1.95064e-06      3.15057      103.772 
6.38533e-05      2.16878      102.787 
6.96651e-05      1.07771      81.1932 
4.03793e-05      3.33490      109.168 
6.26987e-05     0.474342      71.5651 
6.35378e-05      1.26036      128.234 
3.59362e-06      2.84233      102.496 
3.64856e-05      3.16162      103.443 
2.93820e-05      2.59829      114.198 
2.40265e-05      3.32882      111.130 
8.77512e-06      1.95536      124.056 
2.54850e-05      1.79311      124.089 
4.20586e-05      1.90919      98.1301 
-8.28111e-05      3.10243      107.734 
2.23316e-05      1.76886      129.495 
3.35627e-05      2.01408      124.992 
6.60873e-06      5.57972      147.293 
1.77865e-05      3.19218      102.208 
1.30218e-05      2.53571      104.036 
2.53523e-05      3.18117      112.454 
3.28464e-06     0.972227      128.108 
1.89912e-05      1.28213      118.664 
1.72316e-05      2.45217      113.429 
4.95291e-05      1.20150      92.8624 
6.39960e-06      2.60448      114.499 
2.77976e-05      1.24861      128.660 
1.58293e-06     0.840134      88.9770 
1.58198e-06      1.81574      102.888 
2.44233e-05     0.479296      69.8637 
-2.13010e-05      1.23009      105.562 
6.11248e-06      5.58784      147.163 
1.67362e-05      2.59712      114.937 
7.48778e-06      2.93314      112.237 
4.48431e-06      1.89434      98.1943 
4.46215e-06      1.27500      118.072 
5.92099e-06      3.18936      112.102 
1.48176e-06      1.75731      129.806 
0.000923222      5.96451     -12.6382 
0.000612554      5.26132     -93.7597 
0.000321985      3.92054     -59.4122 
0.000288263      8.11988     -132.829 
-0.000342082      7.75098     -77.2547 
0.000243535      2.82530      28.1977 
-0.000178231      4.35259     -38.8448 
-0.000420389      2.47209      70.1357 
-0.000203077      2.50356      15.2852 
0.000340612      4.34084     -2.97116 
-0.000277494      9.40501     -143.039 
-0.000248067      7.63820      156.506 
-0.000213242      3.33530      118.179 
3.46875e-05      5.97915     -12.6068 
-0.000248706      5.39910      4.14232 
-0.000270544      9.27254     -139.921 
0.000390555      3.31188      124.482 
-0.000155686      4.19898      125.109 
0.000236038      5.66198      130.272 
-9.65295e-05      7.29959      53.8601 
0.000234847      4.03386     -22.7510 
0.000122464      1.47710      55.3416 
0.000179193      5.39416      137.705 
0.000258117      5.24736     -93.9339 
0.000261893      9.69527      135.752 
-9.45902e-05      7.23482     -136.008 
-0.000231806      2.67930     -97.7218 
-0.000201816      6.34613     -116.989 
-0.000201985      6.65136      136.005 
-0.000201046      5.59814      131.850 
-0.000225356      8.40648      150.965 
9.00959e-05      5.04437     -2.38594 
3.09548e-05      5.89055     -173.273 
8.75663e-05      7.76335      154.722 
-0.000169367      8.05289     -39.7099 
-6.00468e-05      6.19516      134.019 
-0.000113610      9.13597     -123.481 
0.000113836      1.14983      164.876 
8.50161e-05      8.10969     -132.751 
8.64966e-05      3.45209     -1.99209 
0.000111012      4.41023      36.2853 
-8.49679e-05      2.49312      15.7086 
0.000112816      5.67311     -58.0749 
0.000139617      10.5219     -44.6535 
0.000136720      2.83853      28.0547 
-8.32960e-05      4.20067     -88.9770 
0.000109885      2.87206     -38.4261 
-0.000108432      7.22441     -136.094 
-8.20538e-05      9.49179     -47.5619 
-5.53325e-05      9.56305     -38.0563 
5.58877e-05      5.87566     -173.256 
0.000162201      9.72658     -131.186 
0.000109668      2.42100     -126.941 
0.000110662      10.0937      137.108 
-8.18252e-05      6.20560      134.119 
-0.000133858      6.54242      164.849 
-0.000135269      8.49981     -152.802 
-8.17944e-05      6.50831     -107.850 
-5.40122e-05      7.29076      53.9553 
-5.35393e-05      4.70924      26.8915 
-8.08245e-05      6.89219     -81.9933 
-7.98313e-05      3.90749      118.926 
2.72246e-05      5.32246     -38.9372 
7.79422e-05      5.37505      160.604 
2.68647e-05      1.48106      56.1490 
5.23397e-05      2.34024     -110.642 
2.66688e-05      2.99132     -34.1682 
5.19588e-05      3.83982      8.76318 
5.21056e-05      5.78813      5.65149 
-5.18589e-05      4.29286     -161.249 
-5.16244e-05      2.48117      70.5792 
5.13848e-05      10.0835      137.170 
-2.59611e-05      5.16290     -33.5054 
2.59214e-05      6.84960     -71.8825 
5.11594e-05      5.66039     -57.9946 
5.11810e-05      7.82915     -148.076 
-2.56935e-05      5.60815      131.964 
-2.55609e-05      3.73307      71.4922 
-2.55499e-05      7.34617     -152.650 
2.55605e-05      5.94549      99.4386 
2.54418e-05      3.09713     -93.8879 
-2.54477e-05      2.33331     -30.5216 
-2.53694e-05      6.89011     -82.1169 
2.53566e-05      2.90012     -124.676 
2.53010e-05      4.39503      36.6743 
-2.51954e-05      4.19037      124.942 
2.51627e-05      8.08387     -35.6365 
-0.000204673      6.81918     -158.854 
-8.17599e-05      6.66711      141.119 
0.000196934      8.88613     -149.799 
0.000248657      9.05284      56.6259 
-0.000206667      7.49317     -26.2573 
-7.15171e-05      6.67879      141.200 
-0.000143685      1.57178      76.7595 
-4.39010e-05      2.22729     -62.7447 
0.000142025      5.71640     -20.9080 
0.000139997      8.93167     -45.8165 
-3.92903e-05      4.71604      27.0540 
2.84088e-05      5.61074     -79.6815 
-0.000102640      7.10721     -29.5949 
-0.000101784      8.08049     -65.1951 
-7.98671e-05      4.72288      27.2161 
-8.76518e-05      6.94506     -90.2475 
6.77263e-05      5.04547      77.9885 
0.000101760      5.70239     -20.9618 
0.000151529      5.61345     -79.5308 
3.97691e-05      2.92750     -31.1651 
-0.000110480      8.56131     -58.7608 
-1.35258e-05      2.22046     -63.0888 
5.05786e-05      7.52924      47.8261 
1.33484e-05      5.52971     -151.836 
-6.23910e-05      4.83114      42.3575 
-2.53098e-05      4.23003     -37.0731 
-2.55130e-05      6.76092      140.943 
-4.54521e-05      2.24063     -62.9203 
-0.000130733      3.71982      30.8053 
4.97522e-05      7.25247      152.534 
2.52139e-05      5.53589     -152.046 
-0.000163361      6.02489     -40.1526 
-2.47145e-05      6.81063     -158.691 
0.000139836      2.91976     -30.9133 
-7.05848e-05      6.60554      167.542 
-5.78264e-05      7.07213     -152.185 
-0.000136186      7.44709     -23.0016 
1.24022e-05      2.84561     -105.282 
6.80339e-05      5.04237      78.1552 
-9.81822e-05      10.4900      44.8262 
-3.53081e-05      6.66691     -175.354 
9.60936e-05      2.96939     -18.2519 
6.40017e-05      7.21244     -12.7356 
-3.52252e-05      6.77039      140.845 
-2.37877e-05      4.42754     -165.681 
-0.000184940      7.19978     -98.2652 
9.38190e-05      1.96105     -119.310 
7.86078e-05      2.83516     -105.654 
8.38440e-05      8.08755     -146.192 
-7.47978e-05      9.25835     -36.3686 
-0.000132078      7.01001     -149.099 
0.000103031      7.23916      152.479 
4.05910e-05      4.47272      83.0657 
-9.16569e-05      4.70955      27.2996 
0.000138409      5.44517      11.2790 
-5.29162e-05      4.83217      42.1062 
-5.28517e-05      8.09411     -65.2397 
0.000103458      7.87173      33.0239 
-0.000100979      6.90293     -82.2573 
-3.11441e-05      7.87296     -46.5440 
-8.16906e-05      4.44208     -165.729 
-4.25728e-05      9.66775      41.7295 
2.16783e-05      1.19436     -64.7223 
-4.14229e-05      6.79149      140.826 
4.50282e-05      7.51918      47.9108 
3.19610e-05      9.20949     -136.452 
1.08396e-05      6.92204     -22.2856 
-9.52639e-05      6.45889      131.799 
-4.17551e-05      6.60232      167.669 
-3.12473e-05      6.46275     -138.764 
-0.000111844      7.11463     -29.6999 
-1.06403e-05      6.82460     -158.736 
0.000141850      9.75001      46.3090 
8.14963e-05      5.02769      78.1201 
-0.000170647      10.5006      44.7685 
3.03162e-05      1.18803     -65.3764 
0.000174153      6.91929     -113.508 
5.57419e-05      4.47116     -30.4363 
2.01437e-05      5.14712     -155.003 
-3.92940e-05      2.04540     -140.356 
1.98757e-05      4.70935     -83.5993 
-1.02228e-05      3.10920     -133.241 
3.85535e-05      9.19862     -136.388 
1.94110e-05      1.29566      159.677 
1.00677e-05      7.10569     -18.2055 
-8.53286e-05      3.09829     -133.431 
7.17112e-05      6.62355      17.1218 
-9.45128e-05      7.89590     -26.0296 
-8.10644e-05      9.67895      41.6704 
-8.97579e-05      6.74166      175.406 
3.79070e-05      8.49383     -144.850 
-5.53649e-05      7.13120      62.8421 
5.37050e-05      8.94213     -45.7476 
-7.55958e-05      6.61697      167.697 
-2.81194e-05      8.10040     -65.1433 
0.000108161      8.87859     -149.883 
-3.58479e-05      4.84330      41.9872 
-1.79653e-05      6.45148     -138.676 
2.73890e-05      1.97414     -119.097 
6.05401e-05      1.16817     -65.7387 
5.33643e-05      7.55276      155.726 
-5.13497e-05      6.59403      70.7407 
2.53139e-05      5.12719     -155.084 
-4.31332e-05      6.81259      140.808 
6.36735e-05      8.63354      59.5143 
-7.25948e-05      1.20980     -107.312 
-4.31652e-05      8.54022     -152.715 
-9.25074e-06      2.05500     -140.034 
-9.24259e-06      6.94502     -90.1237 
-0.000102001      6.59918      130.206 
3.48881e-05      5.72177     -21.0483 
1.79966e-05      5.61619     -79.3803 
9.12786e-06      2.94768      20.5560 
3.52431e-05      7.87373     -122.237 
4.35268e-05      5.13079     -88.9949 
-5.68653e-05      2.05697     -140.622 
-7.97704e-05      6.85708     -74.2612 
-1.75038e-05      6.19197      26.0064 
1.75415e-05      4.64276      14.9791 
5.78833e-05      7.15347     -162.173 
-7.16887e-05      4.45662     -165.777 
8.85558e-06      2.95515     -18.3430 
-1.75549e-05      7.79660     -27.7483 
8.83101e-06      6.49623      79.6242 
1.71740e-05      4.45429      83.4254 
1.71153e-05      8.50610     -144.909 
-7.42049e-05      3.10862     -133.631 
-1.69884e-05      6.44890      131.700 
-0.000110321      8.54663     -153.975 
8.71493e-06      8.07509     -146.133 
-4.12432e-05      6.75128     -109.602 
8.69795e-06      7.21893      152.530 
3.29685e-05      2.94245      20.2826 
-4.09621e-05      6.91780     -82.2740 
6.58821e-05      9.74955      46.1844 
-2.51018e-05      7.85175     -46.5482 
-8.65886e-06      8.10672     -65.0472 
-8.63735e-06      7.03159      67.1545 
-9.49391e-05      6.97140      172.707 
4.73725e-05      6.48148      79.6003 
-7.24409e-05      7.18711     -98.4007 
-9.45282e-05      6.66574     -147.311 
-8.59380e-06      4.30228     -161.502 
6.26545e-05      7.88174     -122.329 
4.95796e-05      9.91816      130.338 
2.48463e-05      2.95991     -18.6186 
-8.50781e-06      7.16681     -150.538 
4.05664e-05      4.71127     -162.777 
-3.97026e-05      7.78332     -27.7997 
5.45511e-05      5.45697      11.0937 
-3.92148e-05      7.00487     -148.931 
2.31912e-05      5.73232     -42.6670 
-1.60949e-05      8.10773     -65.2841 
-5.49226e-05      7.88381     -56.6425 
-3.90190e-05      4.29755     -161.692 
-2.34407e-05      5.95309      125.773 
3.22679e-05      6.82071      23.1820 
8.23735e-06      3.60624     -106.928 
-2.34982e-05      7.17988     -150.597 
-2.43436e-05      9.69016      41.6114 
-3.86153e-05      7.13806      62.7349 
2.34480e-05      7.53909      155.679 
-3.84347e-05      7.16416     -53.5140 
-7.67515e-05      6.75661      175.416 
-6.14490e-05      8.16597     -70.1338 
8.15148e-06      8.09590     -146.104 
3.86628e-05      5.13107     -88.8274 
-5.36787e-05      5.66287     -101.459 
8.11135e-06      4.43605      83.7882 
2.28098e-05      7.59013     -52.7904 
8.08570e-06      3.57699     -160.653 
-3.81898e-05      7.72448     -138.385 
3.13466e-05      8.03039      21.8213 
-2.32534e-05      6.44159     -138.776 
3.77468e-05      5.70777     -21.1024 
-1.51109e-05      6.17849      26.0674 
-5.30864e-05      8.23675     -65.5820 
2.27726e-05      1.15451     -65.4328 
-4.51120e-05      9.68021      41.5451 
-1.54641e-05      8.86911     -141.386 
2.32288e-05      6.92217     -155.823 
1.49969e-05      3.60191     -106.699 
2.31635e-05      9.74913      46.0598 
2.26454e-05      2.94570     -18.7117 
-2.98385e-05      8.47691      120.286 
3.02858e-05      9.90846      130.272 
1.52615e-05      5.00103     -52.9239 
2.25213e-05      10.1534     -133.623 
-4.49219e-05      6.60887      130.305 
-2.22914e-05      4.43051      168.081 
-2.22640e-05      4.85446      41.8688 
7.67142e-06      6.82663      23.2978 
-1.51337e-05      9.81264      42.1500 
1.48145e-05      9.04460      56.7052 
2.23520e-05      9.71214      47.1906 
7.66314e-06      4.43445      83.9808 
2.22950e-05      2.95652      20.1818 
-2.20634e-05      8.11866     -64.6186 
2.95256e-05      6.84041      23.2481 
7.58332e-06      7.11995     -18.1677 
-7.58494e-06      7.61352      55.8403 
-2.20711e-05      6.75633     -109.722 
-2.93899e-05      7.71801     -151.692 
-7.57284e-06      7.84144     -46.6277 
4.39896e-05      9.74877      45.9351 
2.20378e-05      8.51473     -144.826 
7.51633e-06      6.62798      17.2457 
-7.50961e-06      3.11899     -133.831 
2.91996e-05      6.90849     -155.772 
-1.46831e-05      6.83370      140.790 
2.19526e-05      8.04990      21.8807 
-7.46882e-06      7.00661     -1.22670 
-7.44784e-06      8.52689     -152.669 
-2.19830e-05      5.77547     -59.5722 
2.18255e-05      8.96334     -45.7458 
1.46545e-05      4.41647      84.3475 
-2.18060e-05      7.99354      155.262 
-7.41369e-06      7.45296     -23.1077 
-2.91259e-05      2.94978     -85.3331 
7.38857e-06      1.14836     -66.1135 
-1.46296e-05      6.63836      131.978 
-7.35205e-06      7.60510      55.9338 
7.34303e-06      9.18777     -136.323 
1.45520e-05      4.69694     -162.722 
-1.44427e-05      7.18494     -98.2824 
-1.45269e-05      7.50846     -35.4046 
-7.26571e-06      7.42312      144.126 
7.19099e-06      7.23631     -4.39871 
-7.15499e-06      4.28806     -161.438 
7.15161e-06      9.95044     -129.618 
-7.14892e-06      7.80359     -27.8457 
-7.12830e-06      6.62032      130.221 
-7.12170e-06      7.49623     -35.4710 
-7.11794e-06      6.74048      175.533 
-7.10921e-06      9.80258      42.0850 
7.10882e-06      9.18828     -136.455 
! Tentative model.
! Flux (Jy) Radius (mas)  Theta (deg)  Major FWHM (mas)  Axial ratio   Phi (deg) T \
! Freq (Hz)     SpecIndex
-5.69073e-05      6.94515     -90.3712 
4.71039e-05      7.59013     -52.7904 
-1.46666e-05      8.87641      38.2062 
2.80520e-05      6.62798      17.2457 
-5.42441e-05      7.68990     -101.704 
6.09689e-05      9.91816      130.338 
5.50031e-05      6.82663      23.2978 
6.08312e-05      7.11995     -18.1677 
4.65235e-05      8.09590     -146.104 
3.99055e-05      5.14448     -7.53944 
-7.17910e-05      7.97120     -162.929 
-6.22486e-05      7.89207     -56.5516 
1.42023e-05      5.13107     -88.8274 
-0.000102697      7.49623     -35.4710 
-2.11940e-05      6.61697      167.697 
-5.74818e-05      7.84144     -46.6277 
-1.40433e-05      8.33115      138.504 
2.74918e-05      6.49623      79.6242 
-1.32331e-05      6.94526     -90.4950 
-1.39628e-05      8.54849     -58.7086 
7.11433e-06      5.00103     -52.9239 
-1.39226e-05      6.17849      26.0674 
-7.07071e-06      3.11899     -133.831 
2.65467e-05      7.15347     -162.173 
-0.000120638      8.55479     -32.6869 
7.06492e-06      1.14836     -66.1135 
6.54931e-05      4.69694     -162.722 
7.03810e-06      6.83258     -23.4133 
-2.74333e-05      2.94978     -85.3331 
1.39274e-05      7.59304     -52.9490 
3.33974e-05      2.95652      20.1818 
-3.93420e-05      5.66287     -101.459 
-7.99449e-05      7.13806      62.7349 
5.39545e-05      6.90849     -155.772 
-6.99451e-06      8.53046      138.207 
1.38813e-05      3.60191     -106.699 
1.36479e-05      4.47116     -30.4363 
1.99151e-05      5.15522      166.368 
-3.31442e-05      4.47116     -165.824 
1.37096e-05      2.93149     -18.8058 
7.59549e-05      7.23631     -4.39871 
-5.81880e-05      5.96527      125.688 
3.98860e-05      1.14089     -65.1196 
2.66676e-05      7.88174     -122.329 
6.91963e-06      4.98047     -50.9898 
6.91217e-06      1.96105     -119.310 
-3.94625e-05      1.21435     -107.987 
3.29756e-05      5.13079     -88.9949 
-2.02973e-05      7.01853      141.072 
1.35900e-05      2.83115     -105.362 
2.65531e-05      8.95269      127.580 
-5.79802e-05      6.60232      167.669 
-3.64181e-05      4.85446      41.8688 
-1.35379e-05      6.08433     -132.302 
-2.92486e-05      7.99354      155.262 
1.32928e-05      2.91976     -30.9133 
2.61553e-05      7.78851     -112.416 
-9.03821e-05      4.28331     -161.629 
5.10032e-05      6.91466     -155.659 
-3.11372e-05      8.86463      38.2661 
-3.72842e-05      5.76788     -59.7007 
6.81125e-06      6.83855     -23.5286 
-2.57267e-05      6.78425      92.0273 
-1.32408e-05      7.42312      144.126 
-7.02009e-05      6.62032      130.221 
4.96041e-05      4.98993     -50.8560 
1.33104e-05      6.47314      29.1191 
-9.94959e-05      6.85708     -74.2612 
-1.94086e-05      8.55164      138.200 
1.95296e-05      3.60624     -106.928 
4.85240e-05      10.0763     -135.121 
3.59911e-05      5.70777     -21.1024 
5.64958e-05      5.61451     -42.9430 
2.56191e-05      6.82480     -23.5789 
-6.70025e-05      7.78217     -14.6255 
5.90482e-05      8.96184      127.656 
-9.61019e-05      7.10721     -29.5949 
-8.48822e-05      9.35031     -124.939 
-3.80289e-05      3.70694      30.9240 
-5.50590e-05      6.44890      131.700 
-6.62278e-06      7.78332     -27.7997 
6.61700e-06      3.20583     -9.15381 
-0.000106250      7.60111      55.7768 
-1.30229e-05      6.99203     -148.868 
-1.89419e-05      8.88324     -141.582 
-1.30177e-05      1.44265      81.0274 
4.44128e-05      8.07988      130.105 
-7.79577e-05      6.66574     -147.311 
6.57520e-06      1.97414     -119.097 
-3.54222e-05      6.60336     -104.604 
-3.18722e-05      7.18711     -98.4007 
-4.34738e-05      6.91580     -82.3971 
-3.56364e-05      7.73570     -138.459 
9.41006e-05      4.72595     -83.4389 
-1.91808e-05      4.43051      168.081 
-3.11824e-05      7.68815     -5.71059 
-8.87365e-05      7.03020      141.149 
-6.13220e-05      8.19562      150.385 
-1.29327e-05      10.5112      44.8266 
1.91480e-05     0.582495     -11.8887 
-6.49485e-06      6.14475      26.3774 
1.89901e-05      9.48612      52.8402 
7.71825e-05      1.94312      147.291 
2.48511e-05      9.30958     -128.458 
3.05133e-05      6.49354      79.7543 
-1.88915e-05      2.94860     -85.6236 
-6.43512e-06      6.47868      172.283 
5.93794e-05      8.53268      123.746 
1.23904e-05      7.87173      33.0239 
-2.46305e-05      7.54021      63.0272 
-6.39309e-06      6.60819      70.7836 
7.13189e-05      6.84041      23.2481 
-1.25694e-05      7.69406      172.044 
-8.24371e-05      7.73122     -151.744 
-4.72026e-05      1.42555      81.5289 
1.24211e-05      5.47169      11.0635 
-5.24155e-05      7.41434      144.220 
-4.93360e-05      9.27438     -140.052 
-2.47123e-05      10.5113      44.7109 
-4.69192e-05      3.19275      22.9512 
-3.58966e-05      6.78479      92.1539 
-1.84390e-05      4.61993      29.1449 
4.73188e-05      7.60209     -52.8588 
2.43094e-05      2.96173      20.4542 
-3.52040e-05      7.79033     -27.8973 
4.63136e-05      7.84695     -12.3625 
1.84482e-05      1.12730     -64.7989 
-1.23076e-05      7.67842      175.069 
6.24294e-06      5.46301      36.9643 
-6.21986e-06      8.25041     -65.6250 
-6.20544e-06      9.35179      42.7250 
-7.49801e-05      8.68874      51.4483 
4.05167e-05     0.585769     -13.3245 
4.04199e-05      5.11579     -88.9920 
-2.33878e-05      7.14318     -53.5392 
-1.78939e-05      1.22413     -107.103 
-6.13721e-06      6.15819      26.3154 
-2.30348e-05      5.06014     -168.024 
4.01869e-05      6.48148      79.6003 
-1.19737e-05      4.42744      168.271 
3.48141e-05      10.1431     -133.562 
-7.43248e-05      4.14005      34.6689 
-9.65225e-05      10.5218      44.7690 
-5.20114e-05      7.69200      172.154 
2.90391e-05      9.47417      52.7854 
-6.06512e-06      9.34077      42.7874 
3.43518e-05      3.57699     -160.653 
1.18842e-05      8.01647      21.8611 
-1.17965e-05      6.74048      175.533 
3.99522e-05      9.74816      45.6858 
-2.89189e-05      8.69810      51.3711 
3.39739e-05      6.71092     -47.7177 
-1.74307e-05      4.49662     -166.103 
-7.34554e-05      7.68400      4.02983 
-5.65453e-05      7.60019      80.6864 
-3.98959e-05      8.23056     -65.6770 
-1.70062e-05      6.63836      131.978 
-2.88026e-05      6.43031     -138.688 
3.49030e-05      7.05561     -172.180 
-6.79846e-05      6.59918      130.206 
4.55995e-05      8.09136      130.037 
3.41845e-05      5.47459      11.2176 
1.75102e-05      9.91991      130.216 
-9.60480e-05      9.28402     -139.981 
4.51147e-05      5.98923     -87.8470 
3.92760e-05      1.12029     -63.7780 
-4.45276e-05      5.66587     -101.607 
-2.89134e-05      6.58766      167.641 
-3.37530e-05      7.24494     -26.2998 
2.27705e-05      5.16980      166.407 
1.14459e-05      6.91929     -113.508 
-2.24976e-05      4.61418      29.3983 
-1.11956e-05      6.74273      168.190 
-1.71574e-05      9.35097      42.8549 
-2.81996e-05      6.91383     -82.5204 
5.82435e-06      5.47500      36.8699 
-1.67960e-05      7.49317     -26.2573 
-2.78405e-05      6.57951      102.642 
1.66986e-05      5.75726     -120.708 
-3.34336e-05      8.89500     -141.642 
-4.45722e-05      6.95245      130.011 
-5.81205e-06      6.65954      131.987 
-2.77823e-05      8.22045     -134.483 
3.31837e-05      4.68262     -162.668 
3.85933e-05      8.24286     -43.8940 
2.77315e-05      5.60354     -43.0475 
-1.67571e-05      7.66347      175.059 
-2.23123e-05      8.46936      120.198 
1.11561e-05      5.92764     -82.7311 
-1.11917e-05      7.67175     -5.61027 
-3.86658e-05      8.18258      150.333 
-1.65737e-05      7.93012      62.5140 
1.11999e-05      4.80234      104.470 
-2.75971e-05      8.75342     -151.327 
2.75860e-05      8.87108     -149.967 
-1.67185e-05      6.59089      167.514 
2.23453e-05      7.04075     -172.163 
-1.10996e-05      1.22863     -107.771 
3.84393e-05      5.54461      106.180 
1.65053e-05      6.40851      81.9268 
2.73558e-05      6.02294      51.6745 
-2.18601e-05      8.64635      52.6132 
5.54965e-06      8.03039      21.8213 
-5.53523e-06      7.54703      62.9257 
-2.16302e-05      9.33998      42.9174 
-1.62588e-05      2.56518     -89.3299 
-5.53036e-06      5.63940      163.782 
-1.08960e-05      6.44546      24.1791 
-1.08174e-05      5.78994      41.7445 
5.46765e-06      7.50913      47.9958 
1.62616e-05      7.02589     -172.147 
-1.07587e-05      8.85286      38.3263 
-1.07891e-05      6.57625      167.485 
-1.07563e-05      7.54053      62.7723 
5.41554e-06      5.49600      36.9012 
-5.39945e-06      7.92628      28.3595 
1.07296e-05      8.54516      123.690 
-5.39619e-06      6.96635     -54.9069 
-5.39076e-06      10.6304     -136.258 
-5.38062e-06      8.89257     -141.506 
5.38199e-06      3.50942     -139.160 
-5.37201e-06      6.18570      133.526 
5.37048e-06      9.82758      136.979 
5.36555e-06      7.39110      118.750 
-5.34839e-06      6.11119      26.6908 
-5.34197e-06      5.62500      163.740 
5.34260e-06      7.01104     -172.130 
5.34393e-06      8.52338     -144.744 
-5.35138e-06      9.98881     -39.8827 
-5.33328e-06      10.4928      46.3322 
5.33132e-06      7.99628      56.7869 
5.33533e-06      4.78782      104.515 
-5.32682e-06      8.94530      136.699 
-5.31100e-06      7.52404     -99.9881 
5.31453e-06      7.59921     -52.7003 
