! Center RA: 12 21 31.69052,  Dec: +28 13 58.50019 (2000.0)
! Established model.
! Flux (Jy) Radius (mas)  Theta (deg)  Major FWHM (mas)  Axial ratio   Phi (deg) T \
! Freq (Hz)     SpecIndex
  0.106486      0.00000      0.00000 
 0.0230892    0.0202604      90.0000 
0.00180811    0.0286526      135.000 
 0.0182350    0.0446338      116.996 
0.00401912    0.0397705      90.0000 
 0.0109460    0.0600310      90.0000 
0.000484816     0.201375      84.2257 
0.00190582     0.219863      90.0000 
0.00182462    0.0202604      180.000 
0.000894307     0.240124      90.0000 
0.00104518     0.259634      90.0000 
0.00234441    0.0286526     -135.000 
0.00116094     0.279894      90.0000 
0.00338409    0.0446338     -116.996 
0.000666342     0.300838      93.8616 
0.00121323     0.320306      93.6266 
0.00218798    0.0633577     -108.650 
0.00261896     0.240977      94.8229 
0.000163981     0.200353      90.0000 
0.000162513    0.0633577      108.650 
0.000319607     0.260423      94.4620 
0.000309226     0.280627      94.1402 
0.000290738     0.322129      97.0919 
0.000691924     0.342244      96.6731 
0.000263847     0.362375      96.3009 
0.000872436     0.384412      98.9843 
0.000690889     0.404436      98.5360 
0.000849530     0.427819      100.817 
0.000961405     0.446997      100.348 
0.00213827     0.470689      102.241 
0.000928920      1.03082      108.066 
0.00213329    0.0828082     -104.162 
0.00156723      1.05010      107.723 
0.00199438     0.490508      101.740 
0.000193271      1.70854      62.8497 
0.000128666      1.16165      92.9622 
0.00221092      2.88837      175.634 
6.33084e-05      1.72593      63.1453 
0.000307814      1.16078      91.9634 
0.000429285      1.71720      63.7261 
0.000304424    0.0802914     -90.0000 
0.000301262      1.05645      108.770 
0.000343666     0.178866      26.6725 
0.000788150      1.73539      64.0222 
0.000399545      1.16028      91.0005 
0.000334647     0.107434     -111.727 
0.000334285      1.06314      109.803 
0.000610520      1.16010      90.0000 
-0.000921161     0.518891     -62.4344 
0.000313048     0.197181      24.0289 
0.00146737      4.01554      130.354 
0.000355895      1.06991      110.787 
0.00107035      1.75363      64.3121 
0.000399420     0.144435     -123.773 
0.000104328      2.88695      176.020 
5.14107e-05     0.134233     -116.565 
0.000571100      2.90716      176.048 
0.000608768     0.215843      21.8384 
0.000690362      2.90583     -176.447 
0.000195483     0.509625      101.293 
0.000192582      1.13443     -49.2918 
9.56926e-05     0.486913      99.4914 
0.000813190      1.81377     -165.970 
0.000685406      1.07726      111.794 
0.000701323     0.172194     -125.422 
0.000925322      1.16028      88.9995 
0.000912041     0.506166      99.1272 
0.000273051     0.549419      169.534 
0.000524782      1.10635     -49.3734 
0.000398829      2.55631      104.032 
-0.00117844     0.509832     -64.4533 
0.000540495      1.77123      64.5857 
0.00206143     0.568616      169.891 
0.000738123     0.234065      20.0616 
0.000193449     0.546212      171.547 
0.000763349      2.53196      103.715 
4.20397e-05      2.90716     -176.048 
0.000856231      1.81879     -165.350 
4.18105e-05      1.63751      61.5677 
0.00134797      2.20302      150.650 
0.00121712      2.92530     -176.470 
0.000455745      1.09326     -50.1793 
0.000926684     0.161670     -119.778 
0.000151196      1.61972      61.2264 
0.000737206     0.503350      96.8496 
0.000500904      1.78955      64.8641 
0.000571740      4.03100      130.167 
0.000737021      1.08495      112.788 
0.000143216      1.16078      88.0366 
0.000692292      1.14053      88.0017 
0.000699307      1.84357     -164.900 
0.000136751      1.61260      60.2617 
0.000302809      1.08040     -51.0046 
3.51014e-05     0.241454      24.4145 
0.000444945      2.50825      103.371 
0.000264025     0.523472      96.5851 
0.000772123     0.260038      22.5690 
0.000221608      4.05920      135.996 
0.000252724      1.80791      65.1368 
0.000159736      4.04593      129.989 
0.000274132      1.59504      59.9007 
0.000558532     0.521537      94.3734 
0.000243294      1.06823     -51.8179 
-0.00164863     0.501727     -66.4638 
0.000208853     0.152624     -113.162 
0.000121912      1.65964      102.534 
0.000208741      4.03294      129.769 
0.000448742     0.188432     -121.981 
0.000548456      1.86826     -164.485 
0.00175643      2.88998      175.234 
3.00864e-05      1.63554      101.996 
0.000225160     0.762509      94.5155 
0.000226613      1.81620      64.5784 
0.000327941      4.07380      136.194 
0.000230828      2.19353      151.094 
0.00112039      1.65536      101.850 
0.000252270      2.48854      103.479 
0.000519140      1.14142      86.9852 
-0.00370610     0.747714     -105.543 
0.000415418      1.09265      113.731 
0.000195560      1.05583     -52.6822 
0.000449169      1.58791      58.9016 
0.000326603      2.94436     -176.888 
0.000476290      4.04853      129.585 
0.000107988     0.145849     -105.824 
0.000844307      2.21062      151.338 
0.000155820     0.501338      94.5500 
0.000207049      1.04367     -53.5668 
0.000635278      1.89253     -164.051 
2.65984e-05      2.48390      103.024 
0.000276493      2.46416      103.131 
0.000224317      1.83384      64.8401 
0.000484132     0.740950      93.0768 
0.00174310      2.94553     -176.495 
0.000384471     0.178866     -116.673 
4.95863e-05     0.141777     -98.2159 
0.000962795      2.20098      151.801 
0.000191804      1.03220     -54.4381 
0.000376227     0.500168      92.3215 
0.000447694      4.08844      136.391 
0.000566752      4.06417      129.403 
2.42257e-05     0.126477     -71.6725 
0.000443944      1.58151      57.9312 
-0.000275385      3.57924      136.589 
0.000202307      2.44078      102.789 
-0.000899899      3.59319      136.354 
0.000741044      1.08259      115.144 
0.000133312      1.84255      64.2698 
0.000234868     0.268467      26.5651 
0.000242295      1.02055     -55.3635 
0.000190535     0.134233     -63.4349 
8.76342e-05      1.77048     -166.270 
0.000243895      1.14266      85.9707 
0.000270731     0.228306     -127.925 
0.000226355      1.91763     -163.636 
0.000182355      2.41658      102.427 
0.000366375      1.74605     -166.758 
2.11374e-05      1.85143      63.7050 
0.000376613      1.65132      101.162 
0.000200918      1.00917     -56.3099 
6.17692e-05      1.86962      63.9800 
-0.000747585      2.62158     -178.245 
0.000367969     0.720656      91.6110 
0.000233132     0.543603      173.660 
0.000250950      2.20943      152.512 
0.000333788     0.144435     -56.2274 
9.86666e-05      1.87826      63.4452 
0.000314396      1.57535      56.9155 
-0.000987886      4.52774      133.207 
0.000217553     0.278118      30.3009 
0.000361591      4.03613      129.372 
3.86017e-05      1.11907     -151.132 
0.000291163     0.998483     -57.2415 
0.000299155      2.39249      102.057 
0.000344556     0.499758      90.0000 
7.51682e-05      1.88740      62.8950 
0.000369593      1.14625     -150.767 
0.000127405     0.216445     -123.690 
0.000108276      1.96130     -163.416 
0.000469756      1.62774      100.626 
0.000464748      4.10259      136.579 
5.43299e-05      1.89672      62.3502 
0.000106706      2.21856      153.201 
0.000681814     0.740159      91.5686 
0.000650823      1.80869      71.9710 
3.52988e-05      1.90585      61.8306 
0.000605997      1.72249     -167.265 
0.000340645     0.521537      175.627 
4.98343e-05     0.269397     -131.952 
3.45711e-05      1.93264      61.5742 
3.43675e-05      2.23644      154.587 
0.000133660     0.814312     -27.7930 
0.000227624     0.987667     -58.2299 
8.43448e-05     0.145849     -74.1761 
0.000100222      1.94236      61.0486 
5.07427e-05      2.24653      155.258 
-0.00116548      3.60788      136.576 
5.00817e-05      1.58650      56.3024 
1.67549e-05      1.98073     -163.584 
0.000239967      2.25592      155.933 
3.30685e-05     0.156126     -50.2649 
9.74162e-05      4.02049      129.555 
4.76864e-05     0.295127      28.3896 
1.64985e-05      2.02462     -163.352 
0.000304899      1.56968      55.8921 
4.83482e-05     0.288454      33.6487 
0.000248844     0.152624     -66.8384 
0.000111144      1.95188      60.5475 
1.61910e-05      2.04404     -163.514 
0.000674737      1.62412      99.9236 
0.000401514      1.12862     -150.265 
0.000170297     0.805400     -26.5651 
0.000450482      2.08221     -163.825 
0.000123037      3.99254      129.509 
-0.000844741      2.62104     -178.688 
0.000280667      2.36938      101.694 
0.000103731     0.835176     -16.7091 
0.000120025      1.96192      60.0322 
0.00116426      2.26632      156.610 
1.53394e-05     0.283342     -135.000 
0.000327572     0.977152     -59.2400 
0.000856698     0.304887      31.6167 
-0.00142546      1.46674      117.614 
0.000228527     0.500168      177.678 
0.000262094      1.09135      116.107 
0.000520339      3.00560     -170.037 
0.000116596      3.97693      129.695 
0.000127345     0.161670     -60.2221 
2.90391e-05      4.11733      136.772 
2.89737e-05     0.377263     -147.922 
4.28581e-05      4.07160      139.582 
0.000126426     0.796545     -25.2615 
0.000368781      2.96360     -177.286 
5.68468e-05      1.97212      59.5223 
2.83115e-05     0.169793     -45.0000 
4.21333e-05     0.760412      91.5268 
0.000269951      4.11655      136.374 
0.000111179      3.96136      129.882 
-0.000156734     0.493986     -68.6188 
-0.00152693      4.54163      133.393 
8.22833e-05      1.98961      59.8182 
0.000213071      1.58070      55.3066 
6.74625e-05     0.394577     -149.485 
0.000351067     0.693106      136.141 
0.000385341     0.720372      90.0000 
9.23812e-05      4.08705      139.766 
0.000918642      1.15628     -149.891 
0.000170294     0.172194     -54.5784 
0.000178308     0.778270     -25.8980 
8.00358e-05      3.93340      129.838 
0.000637948      1.69849     -167.757 
0.000273190     0.815792     -17.1182 
0.000142320     0.480675     -177.584 
0.000213322      1.99949      59.3349 
7.87959e-05      1.62076      99.2181 
0.000334802      1.60150      99.3299 
0.000877459     0.967319     -60.2331 
0.000102816      3.91787      130.028 
-0.000316381      1.28810      64.2410 
0.00110461     0.739882      90.0000 
0.000321918      1.10008      117.019 
0.000869313      1.56470      54.8999 
-0.000406328      2.67926      96.8523 
6.03902e-05     0.404832     -147.105 
0.000169623      3.90237      130.219 
0.000295145     0.184676     -49.4492 
0.000376453     0.480248      180.000 
0.000289692      2.24773      156.405 
0.000310656     0.769637     -24.5410 
0.000132132      4.07447      139.976 
0.000344724      2.98146     -178.082 
0.000427386      1.59845      98.6398 
0.000269809      2.00990      58.8381 
0.000529541      2.39680      102.531 
0.00100421     0.854707     -122.560 
0.00113508     0.797167     -17.5310 
0.000157670      3.88750      130.405 
3.38634e-05      2.08794     -163.291 
0.000131359      4.13124      136.568 
-0.000715590      1.30637      64.6272 
0.000120412     0.461703     -175.058 
0.000343434      2.98565     -169.969 
7.69284e-05     0.198446     -45.0000 
-0.000883288      2.01657     -172.603 
-0.000988183      2.43188      148.797 
0.000106802      2.19148      152.268 
0.000275276      3.87209      130.599 
5.32835e-05     0.178866     -63.3275 
8.32858e-05     0.761740     -23.2060 
-0.000335569      1.11816     -26.5479 
0.000142597     0.188432     -58.0188 
0.000101720      1.62453      94.2383 
0.000305407      3.81077      140.970 
9.87229e-05      1.11816      116.548 
2.98295e-05      1.10943      117.952 
0.000224355      4.14467      136.372 
3.98270e-05      1.67520     -168.292 
-0.000458362      2.65915      96.9044 
0.000390807      1.69431     -168.426 
6.78338e-05      1.58151      99.4489 
0.000639820      2.96271     -177.677 
0.000229387      1.64473      94.1862 
0.000142783     0.199903     -53.0871 
0.000147813      3.85673      130.795 
0.000686030      1.17320     -150.369 
2.80339e-05      1.56503      100.302 
0.000346170      1.12736      117.469 
3.70168e-05      3.84401      130.575 
0.000239360     0.480675      177.584 
0.000223067      1.43203      102.099 
-0.000732615      1.10958     -25.6466 
0.000159743     0.212689     -48.7190 
0.000291490      1.99259      58.5367 
8.95705e-06      4.10253      139.949 
0.000325940      2.96570     -169.901 
0.000235783      3.82921      130.764 
-0.000144777      3.63598      136.555 
0.000169838      2.75071      104.745 
8.60832e-06      1.45111      101.937 
-8.59660e-06      3.47967      136.398 
0.000204149     0.226037     -45.0000 
0.000215328      1.66419      94.1372 
0.000106647      4.15936      136.564 
-4.14895e-05      3.46557      136.176 
0.000373329      1.67120     -168.973 
5.32194e-05      2.86979      175.200 
0.000329075      3.79505      140.778 
0.000326749     0.984957     -60.8182 
-0.000203308      3.43645      135.708 
-0.000139659      3.66410      136.552 
0.000254746     0.340529      3.41094 
0.000255662      3.81389      130.963 
0.000245266      1.43625      102.860 
-0.000193240      4.68101      135.169 
5.39678e-05      4.15868      136.170 
1.54551e-05     0.760142      90.0000 
0.000336744     0.843976     -121.401 
0.000112625     0.216445     -56.3099 
0.000243485     0.740159      88.4314 
4.53214e-05      1.56003      53.8632 
-0.000264668      2.63978      96.9553 
0.000102342     0.459987      180.000 
-0.000141864     0.528203     -60.5580 
-0.000198008      1.32403      64.9890 
1.45750e-05      4.11749      140.124 
0.000155836      4.17332      136.362 
0.000119196      1.54817      54.4688 
-0.000150091      3.69220      136.532 
0.000141367      1.68440      94.0874 
5.68208e-05     0.209153     -73.3204 
-0.000214352      1.96176      156.583 
0.000157530      3.79861      131.164 
0.000102680      2.94650     -169.835 
9.46619e-05     0.215843     -68.1616 
0.000108587      1.69036     -169.099 
1.37188e-05     0.760412      88.4732 
9.38539e-05     0.460433      177.478 
1.34527e-05      4.14603      140.088 
-6.04365e-05      3.72084      136.520 
-8.70308e-05     0.700404      178.342 
-4.68365e-05     0.184676      130.551 
1.99760e-05     0.315980      34.7468 
1.32871e-05      1.78944      71.7702 
0.00222159      3.78745     -139.500 
0.000259194      3.80288     -139.698 
-0.00108819      9.13524      130.559 
-0.00137209      10.4043     -41.1020 
0.000767439      8.03864      118.862 
-0.000226384      10.3890     -41.1754 
-0.000726573      9.92275     -97.4125 
-0.000419695      6.91603      143.231 
0.00103115      7.94796      44.7973 
-0.000947574      4.99333      94.1365 
-0.000109585      8.58471     -127.617 
0.000214743      9.24652      20.5131 
0.000946949      7.96576      177.841 
-0.00109319      8.57236     -127.510 
-0.000728298      10.6106      141.812 
-0.000472253      13.5198      44.8786 
-0.000203317      9.26473     -104.244 
-0.000371858      2.56153     -109.136 
0.000102811      8.46208     -120.385 
-0.00111166      6.74239     -49.9299 
0.000288746      9.23944      20.3954 
0.00142517      9.71369     -59.1554 
-0.000289874      8.74662     -114.162 
0.000190520      8.47956     -120.316 
-0.000527965      11.8424     -57.9746 
0.00114353      3.80064     -139.267 
-0.000367122      2.54917     -109.715 
-0.000507188      12.2878     -128.922 
9.48745e-05      12.5664      41.5796 
0.00106217      13.3511      135.729 
-0.00107885      10.4127     -43.4436 
-0.000182993      8.27316     -148.845 
-9.15842e-05      9.26973     -104.366 
0.000173575      8.04600      118.668 
-0.000258580      8.75493     -114.283 
-0.000422792      9.95514     -10.7696 
-0.000407373      9.92529     -97.5242 
0.000480757      4.21245      18.2607 
-0.000249410      6.92063      143.461 
-0.000468689      8.44895     -54.0512 
0.000168838      9.22045      20.4393 
-0.000168832      8.25583     -148.772 
-8.46745e-05      9.03798      121.332 
0.000457599      9.94822      83.3033 
-0.000450137      7.31185      93.2946 
-0.000371600      7.89367      74.8739 
0.000313356      6.93884      58.5549 
-0.000899870      9.04853      121.441 
-8.18420e-05      6.75496     -49.8033 
-0.000383728      9.09791      117.637 
-0.000306588      12.7712      134.429 
0.000379331      3.44318     -22.5411 
-0.000308225      13.5199      44.7616 
-0.000601744      6.74007     -49.6962 
-8.05926e-05      7.91250      74.9107 
-0.000372396      7.70855     -4.91418 
-0.000378093      2.54240     -109.285 
0.000372410      7.98527      177.991 
7.96739e-05      9.55175      12.0850 
-0.000448246      6.13972     -110.796 
-0.000154705      8.77272     -114.230 
-0.000222513      8.24534     -148.892 
-0.000222642      9.97504     -10.7478 
0.000152146      9.52787      11.9958 
-0.000437428      8.31300      142.331 
-0.000292452      4.55421     -81.1569 
-7.66678e-05      10.6265      141.880 
-0.000217969      8.58844     -127.428 
0.000143874      7.96172      44.8969 
-7.45543e-05      9.97128     -10.6334 
-0.000145180      11.0483      48.2294 
-0.000285439      10.6390      141.794 
-0.000215925      9.47172     -119.055 
0.000141971      5.57454     -118.038 
-7.32172e-05      6.90437      143.361 
-0.000142441      12.3006     -128.996 
0.000143149      3.56234     -167.679 
-0.000143304      1.02154     -176.631 
7.21522e-05      11.4403      127.471 
0.000141773      5.75579     -7.98855 
7.14813e-05      9.54769      11.9705 
0.000139134      6.91202      58.6085 
0.000139625      13.2545     -41.0242 
7.04657e-05      8.79907      167.795 
-0.000139560      8.18494     -47.9691 
-7.00291e-05      9.90862     -97.6551 
6.98437e-05      5.14863      43.7422 
-6.92641e-05      13.5343      44.7012 
6.88363e-05      8.27608     -11.8509 
6.87409e-05      9.08766      139.014 
-6.84031e-05      8.43316     -53.9734 
-0.000755097      4.75237     -69.8082 
-0.000556581      6.16586     -110.905 
-0.000323178      8.12330     -168.496 
0.000491593      11.8890     -131.387 
0.000478278      12.9117     -44.9388 
-0.000197670      6.18479     -110.838 
-0.000595105      8.14315     -168.524 
0.000437268      8.32523      31.7432 
-0.000186359      11.7870     -58.0341 
0.000351676      11.2476      140.990 
0.000382377      11.0983     -67.3152 
0.000605947      5.30059     -179.132 
-0.000505344      9.08754      26.1165 
0.000180215      4.42111      77.7212 
-9.26026e-05      6.17761     -110.663 
0.000265729      8.00660      43.5836 
0.000259491      8.10768      2.54622 
-0.000414071      4.77743     -69.6694 
-0.000255297      6.37729     -157.699 
-9.05529e-05      12.3941     -128.646 
-8.99602e-05      12.0682     -126.983 
-0.000665685      6.15866     -110.729 
-8.75140e-05      6.53164      77.6211 
-0.000380002      12.0398     -126.964 
-0.000169422      12.4063     -128.717 
0.000311215      8.49970     -120.547 
0.000370425      3.38888      7.45547 
-0.000242145      10.0536      145.045 
-8.36581e-05      13.9198     -43.6021 
0.000504738      8.02059      43.6884 
-0.000306902      13.4645      44.1578 
-8.24041e-05      6.52733      77.7948 
8.22819e-05      3.36879      7.50019 
0.000225528      11.8756     -131.314 
8.18678e-05      10.2522     -37.0720 
0.000230133      9.48875      143.830 
0.000226479      6.29221      69.1465 
-0.000150058      10.4864      141.972 
-0.000275236      9.03125      121.508 
-0.000155686      12.4190     -128.790 
0.000152289      6.68982     -163.681 
-0.000221287      6.50826      77.7585 
7.80579e-05      9.19032      20.6442 
-0.000329151      8.25988     -148.466 
-7.61923e-05      5.80073     -139.338 
-0.000148832      6.00860     -82.7321 
7.56208e-05      10.2683     -37.0039 
-0.000143256      6.36963     -157.868 
-0.000204810      10.5018      142.038 
0.000272756      12.9398     -44.9366 
7.36787e-05      8.03525      43.5886 
-0.000382134      7.87918     -54.8175 
-0.000142569      5.81395     -139.187 
0.000137558      4.51373     -148.778 
0.000137060      8.08819      2.55236 
-0.000202313      12.4317     -128.862 
-0.000139374      10.0420      145.140 
7.18446e-05      4.42530      77.4744 
-0.000388398      9.10573      26.0604 
0.000201210      9.17136      20.6888 
0.000262209      10.1426      14.0352 
-0.000134236      4.78451     -69.4419 
-7.00479e-05      11.0557      48.8141 
6.97454e-05      6.01923     -149.003 
-0.000183097      2.30856     -54.5121 
0.000193670      6.69554     -163.515 
0.000133708      10.2717     -36.8481 
-0.000135251      5.19977      30.5100 
-0.000254594      8.36059      142.582 
6.83611e-05      11.2197      141.007 
0.000590605      7.87885      176.068 
0.000122682      8.34247      31.6700 
6.71344e-05      3.39157      7.79485 
6.70919e-05      4.10474     -77.0486 
-6.69337e-05      5.79864     -139.056 
-0.000229929      7.94776     -112.177 
6.65809e-05      3.41571     -19.4938 
0.000357622      8.48943     -120.430 
-6.57264e-05      10.0027      110.972 
0.000243975      2.69037     -95.1206 
-0.000237403      5.98597     -82.8999 
-6.52381e-05      10.0586      145.206 
0.000176702      9.50511      143.902 
-0.000125927      13.4786      44.2196 
-0.000186695      5.81193     -138.905 
0.000497835      13.4356      135.602 
-6.35192e-05      9.99106      111.122 
-0.000109891      11.0424      48.8932 
0.000122499      5.77309     -7.76148 
-0.000296582      13.1285     -138.026 
-0.000175761      11.0571      48.9597 
-0.000159384      6.48846      77.7206 
0.000119871      7.06208      58.7878 
0.000120543      10.4791     -51.6644 
0.000617212      8.72782      168.097 
0.000317095      5.77049     -7.56953 
6.11103e-05      3.42252     -19.8135 
-0.000173765      7.86324     -54.7356 
0.000117725      12.9685     -44.9367 
-0.000115832      10.5142      141.951 
0.000118276      10.2561     -36.9135 
6.01811e-05      11.3723      129.933 
-6.02769e-05      5.76407     -143.603 
-5.96451e-05      13.9063     -43.5439 
-0.000115186      9.83431      4.78397 
-0.000167658      7.96652     -112.122 
-0.000115046      13.4788      44.3391 
0.000114688      9.75912      154.119 
5.83742e-05      8.00649      43.7848 
-0.000416917      8.74452     -114.454 
-0.000113119      10.0144      110.822 
-5.78615e-05      5.01391      150.876 
5.77904e-05      8.08908      2.69041 
-0.000166885      5.82478     -138.761 
-0.000111639      13.4927      44.2812 
5.68402e-05      11.3568      129.998 
0.000358389      10.4670     -51.7482 
-0.000109134      13.8777     -43.5409 
0.000204553      10.2440     -36.8229 
0.000258414      7.07260      58.6474 
0.000158710      10.1237      14.0620 
0.000108354      13.2265     -41.0135 
-0.000108209      4.99623      150.763 
5.52722e-05      11.1059     -67.2223 
-5.50121e-05      9.12394      26.0045 
0.000206779      9.77668      154.169 
0.000104340      2.68864     -94.6906 
-0.000340315      13.1265     -137.903 
0.000105610      10.2805      163.962 
-0.000103992      5.00578      150.568 
5.37292e-05      8.06885      2.69716 
-0.000143629      12.4159     -128.921 
-0.000149503      4.24360      33.4596 
5.30733e-05      11.3698      130.077 
-0.000100707      11.4672      116.967 
-0.000103658      9.81412      4.79384 
5.25184e-05      11.1137     -67.1260 
-0.000102027      10.0326      110.783 
-0.000336955      13.4924      44.3984 
-9.95652e-05      3.27952     -83.6946 
-5.20372e-05      5.75207     -143.765 
-0.000101413      8.45443      100.220 
0.000145872      9.56751      11.9454 
-5.13045e-05      5.83815     -138.611 
-5.14060e-05      9.13251      26.1145 
-0.000176520      5.98850     -82.7076 
-0.000140304      10.6131      31.5953 
5.09735e-05      8.03459      43.7929 
5.09965e-05      12.9966     -44.9392 
0.000221808      10.2278     -36.8909 
0.000491517      13.2413     -40.9581 
-9.74859e-05      13.8637     -43.4802 
-9.72864e-05      8.24930     -148.586 
-0.000361379      7.85199     -54.8519 
-9.81258e-05      10.5422      141.935 
4.94972e-05      3.42944     -20.1320 
-0.000142899      5.85157     -138.462 
-9.59541e-05      9.14148      25.9509 
-4.91746e-05      8.35640      142.391 
-4.88414e-05      3.27088      160.347 
4.87887e-05      11.1216     -67.0298 
4.83779e-05      4.18009      89.1771 
4.82189e-05      4.78701      176.891 
0.000373939      8.99159      159.833 
0.000172601      5.44511     -68.9024 
9.49157e-05      9.79492      154.220 
0.000380411      10.1286      14.1732 
4.80508e-05      13.0110     -44.8762 
-4.78029e-05      6.88506      143.862 
0.000473659      7.18414     -53.8327 
-0.000369389      4.98880      150.458 
-9.27326e-05      9.81245      4.67595 
-4.77164e-05      2.32509     -54.8020 
4.72883e-05      11.1372     -66.8415 
0.000250467      9.49319      144.001 
0.000454815      13.4498      135.540 
0.000594319      9.06114      139.208 
-0.000372825      3.24501      160.564 
-0.000133170      9.95678     -10.1793 
8.87979e-05      10.2400     -36.9816 
9.12479e-05      11.0451     -135.220 
-9.00382e-05      5.90247     -160.397 
-0.000133747      7.27125     -96.7921 
-4.58500e-05      10.2024      176.179 
-0.000217658      13.8361     -43.4771 
0.000335093      10.0594     -32.3338 
0.000130008      9.81317      154.272 
4.54519e-05      8.57538      31.6525 
-8.81813e-05      10.0447      110.638 
4.51163e-05      10.2859      163.858 
4.50021e-05      11.1452     -66.7457 
4.50386e-05      4.76678      176.878 
-0.000127882      8.33744     -54.1770 
-4.49217e-05      10.5547      141.848 
-0.000217743      10.2214      176.296 
-0.000127773      8.88121     -97.7645 
-0.000307325      8.76088      104.544 
0.000194673      7.05594      58.5649 
-0.000284928      13.1415     -137.962 
-4.40936e-05      7.72799     -4.90178 
0.000138203      9.07648      139.291 
4.37792e-05      8.03406      43.9896 
-8.50044e-05      9.95335     -10.0688 
-0.000125304      2.59410     -154.413 
8.53446e-05      11.3829      130.155 
-8.55401e-05      9.04186      121.618 
4.36787e-05      7.49974      34.2434 
-4.37205e-05      5.83642     -138.330 
-4.33717e-05      6.88026      143.631 
4.31235e-05      11.1529     -66.6536 
0.000182694      5.75040     -7.59613 
-0.000164890      13.5066      44.4598 
4.26876e-05      3.42439     -20.8735 
-4.26713e-05      10.5673      141.762 
-0.000122889      10.2422     -66.8913 
-0.000280456      10.2416      176.303 
0.000273932      6.27503      118.772 
8.05428e-05      10.4545     -51.8354 
-4.19205e-05      8.76297     -114.399 
-0.000140745      8.21508     -48.1583 
-4.17058e-05      5.89570     -160.583 
8.24004e-05      7.87749      176.215 
0.000185507      8.36272     -10.6102 
-4.14682e-05      5.87801     -138.172 
-4.13443e-05      11.4760      117.054 
4.13538e-05      11.1610     -66.5581 
8.02044e-05      10.7464      113.703 
8.01449e-05      11.0594     -135.146 
-0.000158688      13.8222     -43.4162 
-0.000117548      12.2760     -135.527 
-7.99410e-05      9.96978     -9.93379 
-7.87538e-05      4.20147      165.107 
4.04924e-05      3.43139     -21.1778 
0.000118335      8.50690     -120.360 
-7.87311e-05      5.91411     -160.645 
-4.02155e-05      10.5832      141.830 
-7.90184e-05      5.84941     -138.188 
0.000117756      9.83074      154.321 
3.99908e-05      9.56333      11.8266 
3.98288e-05      5.50473     -92.2890 
7.82588e-05      11.1690     -66.4628 
-7.71845e-05      13.8503     -43.4216 
3.96388e-05      4.76576      177.112 
0.000115987      13.2698     -40.9668 
-0.000111579      7.27368     -96.9505 
7.80331e-05      7.87618      176.362 
-0.000113919      10.0516      110.742 
3.89412e-05      8.06982      2.84085 
3.88998e-05      8.01949      44.0901 
-0.000191063      13.5342      44.4609 
-3.88788e-05      7.83544     -54.7666 
0.000113917      11.2250     -153.661 
3.86812e-05      10.8192      28.3656 
-0.000135604      8.77977      104.513 
3.86672e-05      8.91481     -132.998 
-3.85401e-05      8.36512     -54.1427 
3.83429e-05      13.2566     -40.9007 
-3.82551e-05      2.58506     -153.837 
3.81286e-05      3.42062     -21.6124 
-3.81760e-05      9.99882     -9.55563 
-0.000113492      10.2611      176.310 
-0.000153684      11.9568      43.0342 
-3.78950e-05      10.5793      141.679 
-3.78964e-05      10.2501     -66.7871 
3.79311e-05      13.0534     -44.9371 
-3.78196e-05      13.5203      44.5188 
-3.78268e-05      12.0381      46.2780 
3.77786e-05      8.43853     -77.5469 
0.000203210      5.16439     -84.4468 
3.78658e-05      10.8363      28.3166 
-3.76156e-05      8.90129     -97.7469 
-0.000114757      8.72474     -88.1616 
3.73852e-05      9.04840      139.301 
3.73583e-05      11.1850     -66.2760 
-3.73526e-05      10.5919      141.593 
3.72337e-05      10.8096      28.2711 
-0.000106017      9.16912      25.7262 
-0.000266921      8.38316     -16.9232 
-0.000110137      5.89154     -138.025 
-0.000175491      9.77281      4.69496 
-0.000110155      9.15970      25.8954 
-0.000108119      8.37700     -54.0304 
3.73617e-05      9.42147     -43.6220 
3.72261e-05      10.1455      123.503 
-0.000138422      8.75617     -113.988 
0.000106798      8.03273      44.3944 
7.27325e-05      8.94345     -133.004 
0.000105347      6.66807     -83.1101 
-3.66969e-05      3.79361     -155.057 
-3.64605e-05      7.29304     -96.9320 
7.08446e-05      10.1731      123.532 
3.59667e-05      6.04212     -21.5530 
0.000102502      5.50398     -92.0861 
3.56759e-05      9.84901      154.372 
-0.000192248      4.81063     -99.8164 
-3.53429e-05      3.82054     -154.910 
-3.51205e-05      8.70449     -88.1573 
0.000128165      3.41672     -22.3575 
3.48867e-05      8.59264      31.5816 
-0.000100823      10.0710      103.320 
3.46578e-05      9.40802     -43.5360 
-9.98641e-05      4.19904      33.5424 
-0.000126776      11.9435      42.9658 
-0.000160995      8.40183     -16.8845 
0.000128701      8.77077      168.026 
3.42883e-05      2.70883     -94.6556 
6.64052e-05      6.01682     -21.4484 
3.42651e-05      7.91940      20.8598 
-6.57624e-05      10.6092      31.3516 
-3.40548e-05      4.22033      165.176 
-6.69709e-05      8.89868     -97.6224 
3.38835e-05      8.95772     -132.919 
3.39449e-05      9.85779      154.266 
-3.37595e-05      7.29543     -97.0841 
-0.000156560      6.71637     -50.1944 
6.58717e-05      7.51650      34.1565 
-6.54167e-05      3.23857      160.889 
0.000190952      7.44407     -85.3745 
-9.56927e-05      6.85629      143.061 
6.39581e-05      8.60990      31.5110 
0.000155829      6.30152      118.842 
-9.29996e-05      2.34167     -55.0877 
-9.34047e-05      4.97921      150.654 
0.000244907      2.87281     -136.979 
-6.43840e-05      8.70516     -88.0240 
0.000124242      8.58342      119.911 
6.44123e-05      5.13455      43.8927 
0.000152802      11.0169     -135.075 
0.000123982      9.87604      154.317 
0.000153513      8.94394     -132.824 
3.26414e-05      11.2524     -153.845 
-6.22159e-05      9.26510      43.8646 
0.000153785      10.4420     -51.9228 
-3.23235e-05      8.39900      100.428 
9.29435e-05      6.68818     -83.1309 
-3.21349e-05      13.7781      137.883 
-3.21345e-05      8.75582      104.416 
6.30253e-05      7.02809      58.6197 
3.20338e-05      9.50898      144.070 
-6.26582e-05      12.3216      139.146 
-0.000121090      8.91610     -97.4761 
3.18742e-05      3.57104     -167.056 
-9.10742e-05      7.27330      93.4661 
-3.17395e-05      5.88900     -160.769 
-0.000150666      10.0907      103.293 
-6.16428e-05      9.20496      25.6188 
-9.09774e-05      8.23915     -148.702 
-3.12831e-05      5.99932     -110.493 
6.15220e-05      11.2574     -45.2863 
-6.17539e-05      4.81399     -100.045 
-0.000118802      9.25050      43.9516 
3.11162e-05      10.2006      123.566 
-8.98768e-05      13.7645      137.945 
6.06484e-05      5.52348     -92.0787 
9.04685e-05      5.14862      44.0552 
-3.07596e-05      8.38848     -53.9225 
-8.89189e-05      12.8089     -48.5435 
-8.88381e-05      4.18279      33.6901 
-5.94178e-05      7.27606     -97.1030 
-3.04909e-05      5.20489      76.4426 
5.97672e-05      8.34731     -10.7715 
-5.95122e-05      5.97396     -110.377 
-3.01487e-05      2.57652     -154.226 
-8.80959e-05      6.42732     -87.3233 
3.00962e-05      10.2118      123.661 
-5.94477e-05      12.0094      46.1468 
3.00607e-05      11.2435     -153.938 
3.00667e-05      11.0026     -135.000 
2.98337e-05      11.8967     -130.841 
5.89066e-05      10.6500      28.4900 
-5.81340e-05      12.3083      139.218 
2.96096e-05      5.50351     -133.376 
-2.95121e-05      8.74825     -113.872 
5.81581e-05      10.2287      123.598 
-2.94056e-05      9.75262      4.70470 
2.94110e-05      14.1042      46.4379 
5.78662e-05      7.44246     -85.5300 
2.92761e-05      10.4300     -52.0072 
2.92049e-05      7.03866      58.4789 
-2.90834e-05      8.20000     -48.0638 
-2.90058e-05      7.70684     -4.76410 
2.88010e-05      6.06920      128.040 
2.88171e-05      4.79110      112.070 
-2.88420e-05      9.22323      25.5644 
-2.87771e-05      7.89595     -58.8887 
-2.87063e-05      6.85188      142.829 
2.86399e-05      5.16266      43.9046 
-2.85829e-05      5.90742     -160.831 
2.86164e-05      11.2718     -45.3587 
2.85231e-05      10.0241     -85.9951 
2.84575e-05      14.0907      46.4953 
! Tentative model.
! Flux (Jy) Radius (mas)  Theta (deg)  Major FWHM (mas)  Axial ratio   Phi (deg) T \
! Freq (Hz)     SpecIndex
-3.02700e-05      11.5496      117.763 
