! Center RA: 12 21 31.69052,  Dec: +28 13 58.50011 (2000.0)
! Established model.
! Flux (Jy) Radius (mas)  Theta (deg)  Major FWHM (mas)  Axial ratio   Phi (deg) T \
! Freq (Hz)     SpecIndex
  0.121396    0.0202604      180.000 
 0.0899254      0.00000      0.00000 
 0.0159560    0.0286526     -135.000 
 0.0340769     0.240124      90.0000 
 0.0331997     0.101837      78.5245 
 0.0142385     0.121759      80.4216 
 0.0324609    0.0202604     -90.0000 
 0.0122329     0.260423      94.4620 
0.00469846     0.259634      90.0000 
0.00590608     0.120062      90.0000 
0.00504986    0.0397705     -90.0000 
0.00689978     0.280627      94.1402 
0.00113737     0.279894      90.0000 
0.00507415    0.0998015      90.0000 
0.00170369     0.300838      93.8616 
0.00107059     0.388092      101.940 
0.00173474     0.407936      101.351 
0.00568436     0.140322      90.0000 
0.00490155    0.0446338     -63.0042 
0.000905631     0.262662      98.7088 
0.00322680     0.412220      104.011 
0.000636203     0.243395      99.4042 
0.00657429    0.0600310     -90.0000 
0.00179908     0.247514      104.036 
0.00349696     0.431906      103.360 
0.000162643     0.325253      79.3641 
0.000911001     0.253192      108.489 
0.000157571     0.345185      79.9848 
0.000592881     0.349279      76.7101 
0.00243760     0.437032      105.945 
0.000146486    0.0848966      45.0000 
0.00178396     0.260038      112.569 
0.000980203    0.0896014      26.3505 
0.000537833     0.354273      73.6379 
0.000929111     0.360505      70.5467 
0.000725327    0.0828082      14.1622 
0.00298619    0.0828082     -104.162 
0.00287550     0.443026      108.466 
0.000310536     0.286050      114.817 
0.000526245     0.161111      97.2243 
0.000930819     0.295127      118.390 
0.000607712     0.367749      67.5690 
0.000630071     0.747714      105.543 
0.000208043     0.992954      99.2630 
0.00117298     0.386554      68.7149 
0.000490236     0.969949      98.3182 
0.000558951     0.561200      94.0638 
0.000556476     0.817257      111.547 
0.000381099      1.01296      99.0785 
9.31002e-05     0.718124      102.860 
0.000707543     0.304887      121.617 
0.000347405     0.950648      98.4883 
0.000583123      1.03223      98.9077 
0.000697278     0.541740      94.2100 
8.88373e-05     0.742542      104.036 
8.77716e-05      1.03556      100.015 
0.000966192    0.0896014     -116.350 
0.000340951     0.824622      112.808 
8.41941e-05     0.947869      97.2769 
0.000316183     0.304887      58.3833 
0.000156548     0.714035      101.334 
0.000320296     0.832685      114.094 
0.000155274     0.927776      97.4354 
7.87689e-05     0.737890      102.510 
0.000153646     0.101837      11.4755 
0.000151655     0.930615      98.6724 
7.71753e-05      1.04946      97.6840 
0.000375604     0.841160      115.353 
0.000151096      1.04694      96.5851 
0.000294339     0.540658      92.1476 
7.43089e-05     0.141777      98.2159 
7.38334e-05     0.394056      66.0707 
0.000342820     0.849697      116.542 
0.000899844     0.234065      110.062 
0.000113867     0.215843      111.838 
0.000327527     0.209153      106.680 
0.000214453     0.460433      92.5220 
0.00103314     0.761484      103.680 
0.000109037     0.439727      90.0000 
0.000106473     0.440193      92.6380 
0.000308007     0.141777      81.7841 
0.000102152     0.384412      81.0157 
0.000942811      1.05231      104.284 
0.000195767     0.481892      94.7340 
0.000194259     0.373757      74.5128 
0.000377544     0.126477      71.6725 
0.000275339     0.733911      101.023 
0.00135200     0.503350      96.8496 
9.29807e-05     0.791300      106.132 
8.78189e-05     0.116465      58.9729 
8.64159e-05     0.980812      92.3239 
8.57722e-05     0.710331      99.7310 
8.50007e-05      1.00207      93.4345 
0.000324147      1.05749      105.348 
0.000392375     0.357396      63.4349 
0.000164850      1.00106      92.2769 
8.28184e-05     0.891319      99.0579 
0.000450571     0.268467      116.565 
0.000159051     0.100252      53.2159 
0.000156077     0.730308      99.4623 
0.000311692      1.02055      92.2334 
0.000291931      1.06303      106.401 
7.47741e-05     0.874671      100.529 
0.000694133      1.01998      91.1382 
0.000377868     0.100252      36.7841 
7.12360e-05     0.707189      98.1129 
0.000204701     0.350038      59.0362 
0.000328172      1.06870      107.404 
0.000129907     0.727252      97.8876 
0.000132106     0.449587      110.825 
0.000361003     0.216445      123.690 
0.000255462     0.521537      94.3734 
6.48777e-05     0.278118      120.301 
0.000426502      1.04023      91.1160 
0.00226736      2.31808      100.444 
6.32587e-05     0.858942      117.752 
0.000122677     0.360880      56.2769 
0.000180473     0.457182      113.199 
0.000122399      1.01978      90.0000 
0.000298317     0.841065      118.394 
0.000229619      1.07494      108.435 
5.94019e-05     0.520413      92.2312 
0.000116279     0.980215      88.8156 
0.000112218     0.724832      96.3598 
5.83282e-05     0.398226      72.4528 
0.00117833      3.22238      99.2868 
0.000545657      2.87124      100.846 
0.000359708     0.465536      115.491 
0.000108240     0.344213      54.4042 
0.000371122     0.850886      119.594 
0.000359126     0.960569      87.6271 
0.000445371      1.06199      93.2405 
0.000998096      3.74974      101.076 
0.000132834     0.412220      75.9891 
0.00194251      1.97291      100.519 
0.000156166      1.39860      106.617 
0.000278287     0.107434      21.7271 
5.17436e-05     0.228306      127.925 
0.000101825     0.540279      90.0000 
0.000428998      1.40453      107.409 
0.000780651     0.101837     -101.476 
5.03532e-05      1.08441      95.2806 
0.000592995      2.85511      101.307 
0.000615510     0.447333      116.608 
0.000114016     0.417588      73.2909 
0.00122414      1.08279      94.2525 
0.000235499     0.860688      120.724 
0.000190738     0.540658      87.8524 
0.000162439     0.355922      51.8496 
4.75662e-05     0.878166      120.049 
0.000290568     0.961621      86.4209 
4.58062e-05     0.212689      131.281 
8.57944e-05     0.722868      94.7636 
0.000126513     0.423858      70.6669 
0.000256908     0.541740      85.7900 
0.000215307     0.888484      121.180 
0.000376089      1.41049      108.165 
0.000164189     0.226037      135.000 
0.000288113      2.44376      97.9957 
0.000870733     0.568413      50.6787 
0.000530820      2.68824      102.904 
4.13589e-05      3.72986      101.136 
0.000198924     0.899141      122.284 
0.000238076      3.74590      100.772 
0.000223956      2.83598      101.384 
0.000258967      1.41693      108.944 
0.000114784      3.24494      99.5843 
0.000112602     0.543603      83.6598 
0.000703153      3.76581      100.714 
0.000142531     0.126477      18.3275 
0.00102757      2.44102      97.5248 
0.000220172     0.909711      123.323 
0.000197075      3.29531      100.496 
0.000173048     0.721469      93.1600 
0.000185580      1.23978      100.215 
0.000106570     0.240790      138.411 
0.000244146      1.40544      114.376 
3.67650e-05      3.69471      101.552 
6.84715e-05     0.437032      74.0546 
0.000706403      1.25182      77.0800 
0.000991482     0.121759     -99.5784 
0.000544327      4.00220      102.991 
0.000460444      1.62412      99.9236 
0.000218042     0.546212      81.5471 
0.000202352     0.920997      124.376 
0.000535952      2.85135      100.923 
3.45932e-05      3.21917      98.9310 
0.000731169     0.580972      49.1900 
0.000984615      3.31809      100.766 
6.60595e-05      3.19916      98.9873 
6.48083e-05     0.244605      144.994 
0.000277793      1.39561      115.477 
0.000121660     0.456404      118.798 
0.000389870     0.121759      9.57842 
0.000123593      3.32193      101.109 
0.000383681     0.932586      125.404 
0.000244876      1.42904      107.921 
0.000225797      3.19617      98.6418 
0.000392238     0.340220      49.7414 
3.07084e-05     0.260826      147.453 
3.05267e-05      1.08147      93.1820 
3.04390e-05     0.580403      92.0005 
8.59441e-05     0.720656      91.6110 
5.77497e-05     0.268467      153.435 
0.000111854      2.88178      111.588 
0.000533764     0.420705     -177.240 
0.00110288      1.40411      116.195 
0.000768470      3.76210      100.411 
2.80122e-05      3.01149      106.995 
0.000283083      4.02195      102.927 
0.000104313      2.46111      97.4630 
0.000419803     0.474259      117.619 
0.000468941      3.01725      107.349 
7.73766e-05      2.30254      101.010 
0.000749151      1.62076      99.2181 
0.000781421     0.944023      126.369 
9.29224e-05     0.700404      91.6576 
0.000163345      2.84758      100.522 
0.000170815      4.54381      106.364 
2.52607e-05     0.562998      83.8791 
0.000308782      2.87093      112.093 
2.44208e-05     0.580049      90.0000 
9.52499e-05      4.22198      115.836 
0.000212939      2.86750      100.448 
0.000214986     0.565518      81.8376 
0.000160498      3.17388      98.3332 
0.000905143      4.54935      106.600 
0.000680568      4.21319      115.588 
0.000217798      4.02653      103.208 
0.000619671      1.06104      92.1481 
0.000336692     0.141777      8.21587 
0.000163835      1.42315      107.174 
0.00115847     0.440193     -177.362 
0.000540844     0.141777     -98.2159 
0.000502437      4.09646      105.872 
2.10962e-05      2.68378      102.482 
0.000164720      3.44913      99.6816 
1.97275e-05      2.76324      97.4898 
9.92316e-05      3.06093      103.222 
0.000162277      2.74390      97.5429 
0.000194191     0.764056      132.891 
0.000306327      4.91753      106.297 
3.52362e-05     0.600310      90.0000 
5.10125e-05      1.25899      100.057 
6.36258e-05     0.297155      160.375 
4.85071e-05      2.63383      99.1805 
0.000115627      1.17052      109.980 
0.000321467      2.74131      97.1231 
8.12943e-05      2.30650      101.504 
6.26626e-05     0.581411      86.0777 
8.74361e-05      3.15383      98.3865 
0.000117303      4.66864      116.458 
9.99637e-05      4.04625      103.142 
5.31727e-05      3.03087      106.883 
0.000207376      5.05941      104.420 
0.000304363      3.44578      99.3495 
0.000248168      4.42300      114.017 
2.92742e-05      2.63067      98.7449 
6.14386e-05     0.443026      71.5344 
7.10129e-05      3.46121      112.417 
2.90348e-05     0.600651      88.0670 
0.000141266      5.17609      106.612 
0.000104884      1.17760      110.906 
0.000204117     0.310708      165.024 
0.000596688      1.41317      116.932 
0.000171990     0.583147      84.0913 
2.70717e-05      4.75837      117.001 
1.36284e-05      2.59286      95.7469 
1.35086e-05      1.25573      99.1809 
0.000238723      3.47231      111.981 
0.000179035      2.59098      95.3176 
0.000115344      3.04667      103.677 
7.77581e-05      3.31450      100.435 
1.28650e-05      4.67770      116.680 
0.000400282      4.93698      106.231 
8.35706e-05     0.161111     -97.2243 
5.92992e-05      2.86775      112.996 
9.78596e-05      4.76726      117.210 
1.26643e-05      2.62767      98.3083 
0.000667730      5.39903      104.809 
0.000155932      1.25265      98.2660 
0.000229489      4.04170      102.862 
0.000274303      4.65118      116.565 
4.51291e-05      3.71456      101.489 
0.000228477      3.23112      105.063 
1.18816e-05     0.679851      90.0000 
0.000265296     0.120062      0.00000 
0.000264501     0.777987      133.984 
1.17077e-05      5.05440      104.197 
0.000258884      1.61775      98.5360 
0.000109278      3.15094      98.0220 
2.25037e-05      1.41730      106.391 
2.24618e-05      5.07405      104.141 
0.000188584      4.20375      115.957 
0.000151088      5.06931      103.927 
1.07036e-05     0.660341      90.0000 
4.09926e-05     0.181229     -96.4188 
9.10991e-05      1.25651      76.1795 
2.06629e-05      2.86359      114.772 
0.000249346      4.77656      117.427 
3.82194e-05      1.41172      105.602 
0.000173671      3.71072      101.194 
0.000108663     0.959802      125.678 
0.000257309      1.97656      101.075 
0.000171975      2.86221      115.665 
9.87551e-05      3.05134      104.033 
0.000119866     0.601626      86.2097 
2.74459e-05     0.201375     -95.7743 
0.000298238      3.48389      111.558 
9.33392e-06     0.180093     -90.0000 
9.28924e-06     0.620151      88.1278 
7.21519e-05      2.75825      96.6552 
1.61891e-05      2.60762      98.3726 
8.49403e-05      1.18958      109.647 
4.24116e-05      3.02505      106.515 
4.92339e-05     0.200353     -90.0000 
1.70884e-05      1.40660      104.837 
4.36069e-05      4.09096      105.599 
0.000190721     0.460433     -177.478 
0.000108425      4.78558      117.634 
5.74434e-05      1.42619      104.628 
0.000179767      5.06448      103.705 
0.000146685      4.19492      115.708 
3.62099e-05      3.21229      111.933 
1.45332e-05     0.325575      47.5220 
0.000158835      2.58918      94.8712 
7.53960e-06     0.220795     -95.2649 
0.000181915     0.481892     -175.266 
4.66196e-05      1.27546      76.3889 
7.71631e-05     0.699961      143.106 
0.000146306     0.240977     -94.8229 
0.000204108      3.44266      99.0291 
4.97134e-05      1.42121      103.838 
-0.000774180      4.08017      109.768 
0.000110835      2.87104      116.029 
0.000135137      3.46267      98.9765 
1.94398e-05      2.69266      103.308 
0.000123411      4.40450      114.124 
0.000275360      3.47650      111.248 
-0.000796188      4.14640      100.279 
0.000156702      2.86253      116.565 
0.000311268      3.77783      100.067 
5.89633e-05      2.31062      101.996 
-0.000392063      4.20947      119.613 
0.000135405      4.55518      106.844 
0.000156101      4.03740      102.592 
2.03249e-05     0.300155      126.870 
-0.000257930      2.70366      111.252 
2.04214e-05     0.475177      112.272 
5.04638e-05      1.41392      115.123 
-0.000182334      2.71107      111.651 
1.40078e-05     0.603304      84.2894 
4.66632e-05      1.27000      97.2300 
5.86443e-05      4.38670      114.228 
6.94368e-05     0.140322      0.00000 
8.94464e-05      4.10184      106.134 
8.82987e-05      5.05989      103.490 
0.000196080      4.56109      107.087 
2.34047e-05      4.20480      115.349 
-0.000109902      5.48944      108.036 
3.92195e-05      3.22611      104.728 
6.54747e-05      2.58760      94.4408 
4.75014e-06      1.44089      103.645 
-0.000133294      1.70173      109.929 
8.14054e-05      1.43625      102.860 
3.01141e-05      4.63307      116.677 
8.20477e-05      4.36823      114.337 
2.22602e-05      1.42232      115.835 
-4.43943e-05      4.42081      108.189 
-9.31205e-05      1.34537      131.971 
1.28739e-05     0.312731      129.841 
5.02896e-05      1.98055      101.651 
2.08882e-05     0.240124     -90.0000 
-7.43489e-05      4.41453      107.939 
8.25239e-06      4.95571      106.168 
4.20474e-06     0.660651      88.2426 
3.24779e-05     0.553458      49.3987 
-6.06002e-05      1.14557      73.7968 
-3.62028e-05      3.50272      105.227 
-4.11498e-06      3.52227      105.141 
8.01280e-06      3.03669      104.496 
1.19698e-05     0.325575      132.478 
4.03047e-06      1.26769      96.3552 
-7.89229e-06     0.690733      112.079 
3.92874e-06     0.684458      142.125 
-0.000909655      10.2284     -12.6496 
-0.000168924      10.2086     -12.6745 
0.000217397      5.36630     -2.77318 
-0.000595041      6.79386     -49.4166 
0.000384537      5.26116      1.08694 
-0.000256343      8.24197      88.7479 
-0.000512842      6.76340     -111.327 
-0.000547255      10.8671      33.1348 
-0.000246608      12.2690     -132.953 
0.000286995      7.84130     -1.02538 
0.000335032      5.38654     -2.76276 
-0.000282986      8.71542      10.8484 
0.000407016      8.41536     -147.024 
-0.000579981      5.72419     -142.810 
0.000329404      12.5283     -127.346 
-0.000146079      10.3064     -146.559 
-9.83995e-05      13.0631     -131.526 
-0.000528468      9.14258     -55.3343 
0.000327712      3.61543      61.5945 
9.75193e-05      12.6559     -143.547 
-0.000512013      12.6255      39.0853 
0.000621584      12.6722     -143.602 
0.000220204      10.1580      28.5851 
-0.000301363      13.0496     -131.459 
0.000257678      6.78923     -78.7894 
-0.000422625      8.63115     -67.9507 
-0.000174501      4.21971      82.0990 
0.000178491      9.21548     -62.0452 
-0.000256160      8.22129      88.8860 
-0.000296000      10.2957     -146.649 
0.000175392      5.26083     0.874490 
-0.000172118      5.41113     -152.962 
-0.000253141      12.2828     -133.022 
4.57462e-05      12.2729     -126.384 
9.01506e-05      12.6614     -127.686 
0.000207748      9.64250     -30.1287 
0.000127610      5.51733     -6.66204 
-0.000332996      6.10982      111.106 
-0.000171739      12.0554     -133.118 
-0.000165782      6.37711      54.3181 
-0.000287111      9.36374      123.146 
-4.39408e-05      7.83899      172.968 
0.000205698      3.59762      61.4410 
-8.56736e-05      12.3837     -124.870 
-0.000162153      3.87629     -12.8175 
-0.000123419      7.02804      123.512 
0.000162189      12.9802     -132.566 
0.000202488      8.36757      165.463 
8.43114e-05      12.6893     -127.699 
-0.000201972      9.97447     -154.464 
-4.27763e-05      10.7597     -143.236 
8.21620e-05      12.2845     -126.458 
0.000202947      12.5160     -127.272 
-4.25458e-05      10.0420      13.1214 
-0.000242609      9.69687     -124.412 
-0.000122857      7.83662      173.109 
-0.000161933      4.97802     -17.7822 
0.000122228      5.38755     -2.97797 
0.000122006      5.06084      91.1300 
0.000160188      11.1336     -150.394 
0.000200901      8.74849     -152.496 
0.000119674      2.83642      37.8431 
4.16175e-05      5.58344     -9.89780 
-0.000159372      10.0466      13.2339 
0.000120046      9.22499     -61.9341 
-7.97004e-05      10.4917     -141.578 
-8.12874e-05      11.0451     -30.4657 
-0.000119352      12.3953     -124.947 
7.88897e-05      6.93012     -158.318 
0.000156944      12.7017     -127.772 
-0.000218741      6.78119     -49.5417 
4.02362e-05      7.06251     -99.7816 
7.88362e-05      6.20777      57.2282 
4.00236e-05      8.71179     -105.856 
0.000156128      10.5338     -112.672 
-7.90076e-05      3.12343      61.2984 
-3.94763e-05      10.1427      153.534 
-7.78640e-05      3.45522     -137.817 
-7.76463e-05      11.0277     -30.5191 
-7.74539e-05      12.8919     -131.602 
7.70486e-05      7.03999     -99.6521 
-0.000452410      13.2168      129.351 
-3.88480e-05      9.51586      8.94608 
-3.88207e-05      7.81888      172.949 
3.87493e-05      8.43236     -147.099 
3.87103e-05      3.48574     -60.0516 
-3.87228e-05      10.0391      35.4316 
3.86114e-05      8.90238      111.895 
-7.65186e-05      7.69429      57.0972 
-3.84397e-05      10.1514      153.435 
-3.81048e-05      3.13321      60.9734 
3.80128e-05      9.70188     -76.1637 
-0.000626327      10.5235     -141.715 
0.000463492      8.35574     -141.512 
-0.000269515      5.40225     -153.627 
0.000352533      10.9045     -50.8790 
-9.68569e-05      1.48918      22.0802 
-0.000219321      10.9862     -145.007 
9.44194e-05      6.70988      93.0771 
9.40909e-05      9.07344      158.808 
9.23036e-05      2.73222      19.2262 
-0.000132546      9.27766      7.43081 
0.000212556      6.01882     -34.1616 
-0.000390436      10.3420      103.417 
8.99920e-05      9.62386      80.0684 
-0.000240872      9.01389      21.6101 
-0.000244144      7.32821      124.212 
-0.000275333      2.13230     -23.1906 
-0.000126197      1.47826      23.1031 
0.000204158      7.58953     -23.1175 
8.77229e-05      6.68965      93.0864 
-0.000393941      6.58999      176.867 
0.000452187      9.09233      158.855 
-4.35128e-05      1.47043      22.3770 
8.24564e-05      2.73896      19.6264 
-0.000117161      1.45896      33.2487 
0.000120711      6.66942      93.0958 
0.000186864      9.60464      80.0483 
7.91913e-05      9.96035     -29.6030 
0.000148580      11.6597     -130.547 
-0.000116798      10.0804     -153.738 
-7.80740e-05      11.0021     -145.066 
-0.000181817      6.76806     -49.6722 
7.76569e-05      6.02407     -33.9038 
-0.000113806      10.3187      159.107 
0.000190961      10.3077      34.6445 
-0.000141255      8.20687      122.256 
0.000108589      2.61329      16.9104 
0.000363945      11.4669      124.412 
-6.93811e-05      4.20323      81.7889 
0.000107912      6.64994      93.1049 
-3.72310e-05      1.62523      18.6608 
-3.70352e-05      5.41128     -153.435 
7.05148e-05      9.92949     -30.9029 
9.40135e-05      8.58907     -120.504 
3.65812e-05      6.58818      52.3992 
-0.000100911      11.8321      33.5570 
0.000130453      9.13562      163.071 
-0.000418064      4.32158     -69.9761 
0.000352212      10.8917     -50.9617 
-0.000577819      10.0986     -153.789 
-0.000213933      4.97421     -69.5229 
-0.000253679      4.93325      125.428 
-6.14446e-05      11.4125      42.1591 
-0.000156668      1.46033      23.4035 
-9.92860e-05      6.96419      61.1511 
-3.53862e-05      9.29525      7.29541 
-0.000259558      4.00277      92.0090 
6.82363e-05      7.70496      8.50731 
-3.51859e-05      6.72641      11.1407 
0.000125363      10.2992      16.0079 
0.000124188      9.67486      48.2698 
6.89893e-05      11.9457     -138.598 
-6.70482e-05      5.38411     -153.531 
6.36076e-05      11.8055      59.0038 
-3.45590e-05      12.7566     -37.3559 
-0.000385358      11.8105     -43.9729 
0.000127196      8.33989     -141.426 
-9.67790e-05      5.69730      138.700 
0.000187822      5.37228      121.916 
6.54111e-05      9.90305      49.5852 
0.000149387      4.65230      165.303 
-3.37966e-05      10.2998      159.067 
-6.52014e-05      1.47532      32.8333 
0.000199272      9.37727      80.9206 
8.82575e-05      11.8326     -37.2376 
-0.000197881      10.9520     -133.076 
-6.47603e-05      7.30006      124.170 
0.000123945      6.67334      50.1045 
3.30136e-05      6.62971      93.1144 
-0.000232214      12.7727     -37.3008 
0.000109028      7.56993     -78.5709 
-8.77649e-05      6.70727      11.1729 
0.000438866      11.9603     -138.660 
-3.25999e-05      1.49431      24.5059 
-0.000113440      12.2094      49.1844 
6.22692e-05      11.7955      59.0850 
6.10398e-05      6.00207     -34.2702 
-3.20470e-05      1.66367      18.2143 
-0.000144512      8.16010     -89.4362 
9.19602e-05      6.64887      92.9305 
3.17935e-05      11.8445     -37.3127 
3.16138e-05      8.59041      13.8736 
0.000204568      9.08277      105.320 
-0.000160411      2.15094     -22.9781 
3.11134e-05      7.55081     -78.5415 
-6.10767e-05      3.01409     -117.248 
-0.000278589      12.7563     -135.126 
-8.61747e-05      5.15472     -155.222 
8.36336e-05      7.68492      8.52966 
-3.05389e-05      3.68257     -129.054 
3.05833e-05      9.25658      105.025 
0.000162811      8.61008      13.8413 
-3.04113e-05      9.38925      6.97280 
-8.67942e-05      13.0124     -134.129 
-5.67207e-05      8.97500      73.8243 
-2.97640e-05      5.39317     -153.339 
7.74416e-05      9.28141      164.886 
-5.73235e-05      7.69029      167.232 
-2.94862e-05      8.19773      120.819 
-0.000107664      3.30016      138.189 
2.94064e-05      2.61903      17.3188 
2.91715e-05      4.97844     -134.353 
-5.27102e-05      3.65466     -129.000 
2.90427e-05      9.90538      49.7504 
-2.90240e-05      5.79978      179.800 
0.000270137      10.8676      26.8004 
0.000221999      11.7821      123.718 
-0.000234701      13.0914     -130.602 
-0.000241043      7.31146      124.302 
-0.000103650      8.40916     -52.1515 
-0.000196610      9.97190     -140.371 
-2.86791e-05      5.38474      38.0613 
-5.59511e-05      11.1580     -30.8408 
-2.85924e-05      1.46443      32.1672 
0.000232762      11.8514      59.5837 
2.83684e-05      9.27615      104.993 
-0.000201849      3.00614     -117.761 
-5.47990e-05      11.8597      33.5815 
-2.81952e-05      9.03204      21.5645 
-5.45043e-05      9.16824     -13.8850 
7.92641e-05      8.10064      28.7778 
-0.000101633      7.34706      149.039 
2.77802e-05      9.94491     -29.9175 
5.14494e-05      2.59969      17.4517 
-2.77253e-05      9.42713      6.82520 
-0.000213363      8.15025      76.9528 
-2.74724e-05      1.72080      17.5895 
5.34279e-05      5.35509      122.031 
-0.000153572      10.9045     -25.7663 
7.88085e-05      6.66735      92.7481 
-5.17073e-05      6.57456     -63.8239 
0.000214305      12.9542     -45.1267 
-2.70854e-05      8.19076      121.013 
-0.000375336      13.2292      129.416 
0.000229167      8.91757      112.136 
-0.000168627      5.35735      38.0256 
-0.000292731      6.16621     -135.261 
-5.16048e-05      12.4707      39.6656 
5.05954e-05      4.99210     -134.513 
5.16326e-05      5.99680     -34.5392 
-5.14385e-05      9.61884      10.4228 
2.63367e-05      6.82196     -73.4806 
2.62615e-05      11.7888      58.9549 
-2.61005e-05      2.88106     -103.649 
5.09567e-05      9.91848      49.6611 
-0.000190420      13.3243     -133.907 
-0.000261715      3.88084     -13.1092 
0.000209251      10.3046      16.1122 
-2.57389e-05      9.39676     -52.3513 
-4.95918e-05      12.9983     -134.064 
-2.57327e-05      4.29072     -94.0114 
-0.000176878      12.4836      39.7372 
-2.56326e-05      6.97362      61.0107 
-7.09421e-05      5.13633     -155.127 
2.54480e-05      9.11696      163.036 
-7.30213e-05      11.1406     -30.8943 
6.88829e-05      9.27112      104.876 
-4.88915e-05      10.3997      70.4485 
-2.53455e-05      9.61677     -98.1282 
4.76102e-05      11.7788      59.0362 
2.51646e-05      11.5167     -36.3136 
2.50868e-05      5.00657     -134.350 
-2.50715e-05      1.48162      31.7501 
-6.85022e-05      7.57195      146.856 
6.57757e-05      8.41035     -120.592 
-6.78669e-05      11.8867     -47.0465 
2.45234e-05      9.19643     -173.633 
2.45524e-05      3.66811      164.832 
-0.000175435      8.31840     -109.525 
-0.000262185      3.65116      47.2154 
4.60529e-05      8.62075     -80.3844 
-6.78835e-05      3.20592     -93.5830 
-9.17052e-05      12.3899     -125.074 
-4.50737e-05      9.17294     -14.0033 
4.71440e-05      5.36546      122.208 
-0.000147205      9.38073     -52.2758 
-0.000128436      9.11334     -120.901 
8.92287e-05      6.66645      92.5806 
-0.000126855      9.63803      10.4018 
-4.43722e-05      1.45240      22.6700 
4.31437e-05      6.84067     -73.5271 
2.38333e-05      8.56171     -120.460 
-6.87053e-05      10.8482      135.821 
-0.000465315      9.61965     -98.2477 
-2.37856e-05      6.01736      113.925 
4.65079e-05      12.7163     -143.635 
-0.000126015      8.98045      73.7048 
-4.47034e-05      6.60948      176.876 
-8.98975e-05      10.9221     -25.7218 
4.37114e-05      6.72641      101.141 
-2.33157e-05      8.46753      177.562 
-2.31410e-05      8.18033      120.892 
-2.31185e-05      12.9843     -134.000 
-0.000227056      10.7386     -128.876 
8.73355e-05      9.38752     -2.31807 
-6.32580e-05      8.27491     -68.1455 
6.40723e-05      8.81640      161.485 
-2.28702e-05      9.88506      10.4927 
-0.000141462      12.0403     -133.318 
-6.56412e-05      4.40157     -71.7288 
4.29552e-05      8.57139     -140.777 
-0.000112796      12.7882     -37.2478 
-0.000105019      11.4137     -32.1855 
-0.000157697      6.38796     -128.772 
6.51739e-05      5.00633     -134.678 
-0.000157077      12.7126      36.4911 
-2.24984e-05      9.05088      21.5174 
-2.24910e-05      4.95524     -69.4409 
-2.24732e-05      9.80291     -124.695 
8.32981e-05      13.3223     -45.4861 
2.21603e-05      5.53506     -100.617 
-2.20798e-05      9.44651      6.81114 
-0.000117498      10.5443     -111.355 
-4.19393e-05      11.1128     -30.8583 
-9.91567e-05      8.16995      120.770 
-0.000201970      2.98823     -117.942 
3.80154e-05      11.4564      36.4098 
-6.19766e-05      13.2962     -133.902 
-7.78499e-05      12.2221      49.1152 
-6.19482e-05      7.36380      149.117 
2.17040e-05      8.62975      13.8091 
-0.000153232      9.86588      10.5134 
-2.15388e-05      5.91496      105.496 
0.000227210      12.4745     -132.206 
-0.000119796      10.8341      135.898 
0.000475412      9.45407     -165.671 
2.12798e-05      5.98074     -34.6451 
-7.87321e-05      10.2881     -164.209 
4.18006e-05      11.7614      58.9855 
-0.000115081      12.4015     -125.151 
-0.000242821      6.97330      7.08372 
-7.92805e-05      11.7989     -146.336 
0.000207693      6.73068      99.4067 
9.25546e-05      11.4554      124.328 
-0.000133093      10.3806      70.4111 
-9.72712e-05      12.9707     -133.938 
-2.05289e-05      11.4116      42.3003 
2.05286e-05      5.67972     -100.759 
0.000441811      13.8239      43.1832 
-5.42999e-05      3.64194     -128.752 
-5.89614e-05      10.9306     -25.8139 
2.04148e-05      9.84103      30.2662 
-2.02822e-05      9.81446     -124.792 
-2.02141e-05      6.98346      60.8653 
7.08925e-05      9.32571      65.4126 
0.000145092      9.40776     -2.31308 
0.000130455      10.4139     -133.131 
5.78507e-05      5.02059     -134.843 
5.65776e-05      9.11053      158.899 
-0.000181592      7.32247      124.428 
-3.79898e-05      4.28935     -93.7414 
-9.44242e-05      8.17457      76.8465 
-0.000196925      13.0634     -130.590 
3.88866e-05      11.7709      123.636 
5.64897e-05      7.66778     -78.7187 
3.88582e-05      8.21336      5.16836 
0.000176168      5.22004     0.658922 
-9.88698e-05      7.51229      59.6134 
0.000114923      9.08814      105.443 
3.62113e-05      7.41385     -156.131 
5.45511e-05      9.18653     -92.1206 
-0.000177036      10.9130     -25.8585 
9.10094e-05      11.1695      114.544 
9.18837e-05      11.7336      59.0193 
-1.92948e-05      2.70835     -127.797 
1.92505e-05      8.64870      13.7782 
-1.91639e-05      9.18315     -114.444 
-0.000183815      11.4033     -32.1025 
0.000105940      13.3366     -45.4240 
-7.14613e-05      10.5661      164.069 
9.02175e-05      11.3042     -151.349 
-0.000120367      11.0425      42.3588 
3.64527e-05      4.86754     -133.001 
1.87614e-05      10.4503      115.143 
-1.87435e-05      6.17708     -175.729 
-0.000268058      12.4992      39.6779 
1.87397e-05      5.38262      122.093 
0.000262088      11.7428      123.609 
-1.86576e-05      9.76634     -119.977 
-1.86149e-05      11.0857     -30.8201 
-3.57675e-05      7.38119      149.198 
1.84772e-05      10.1637     -18.4697 
-0.000331835      11.7821     -146.282 
-8.66837e-05      13.8865     -132.490 
-0.000118833      11.3868     -32.1547 
3.55465e-05      12.6286     -143.566 
-4.90947e-05      12.9567     -133.874 
-0.000112360      10.0140     -66.4547 
-5.09463e-05      10.3725      108.085 
-3.47795e-05      9.82561     -124.886 
5.24435e-05      8.15290      47.3872 
-1.80198e-05      11.9006     -46.9751 
-0.000111518      10.8196      135.823 
1.80092e-05      10.8638     -50.9799 
0.000101876      12.2048     -131.081 
5.00425e-05      8.32520     -120.136 
3.47484e-05      8.92494      112.252 
-1.79163e-05      5.89543      105.549 
-0.000423041      9.57217      27.6357 
-5.05283e-05      11.7965     -44.0387 
-8.41075e-05      13.0766     -130.658 
-1.77454e-05      9.38694     -73.9193 
3.35261e-05      8.14520      6.06040 
-8.16297e-05      12.4132     -125.227 
-3.46323e-05      5.65698     -171.871 
-0.000149810      10.1247     -153.739 
-5.00253e-05      9.19156     -114.559 
-0.000105514      9.09660     -120.964 
0.000110465      11.3164     -51.5289 
6.26242e-05      8.31246      49.4885 
-4.77802e-05      3.90057     -13.0417 
-1.74678e-05      10.2692     -41.7625 
4.99827e-05      5.03437     -135.000 
-0.000175393      10.5608      14.5892 
-3.43949e-05      9.66149      10.4939 
3.42395e-05      5.88470      52.0385 
-6.54795e-05      12.7968      40.4362 
-1.73431e-05      4.38305     -71.6488 
0.000318415      10.9947      119.177 
-1.72181e-05      4.94978      125.292 
7.96664e-05      11.7169      58.9702 
7.89707e-05      9.26927     -61.9433 
0.000203862      11.4033     -147.898 
3.19074e-05      8.21163      5.03279 
-3.32126e-05      10.8873     -148.675 
0.000322545      12.1823     -147.198 
1.70291e-05      8.69289      13.8443 
-0.000147279      8.16999      76.9849 
0.000113656      9.63512     -56.3446 
1.69902e-05      11.7045      123.500 
-0.000130326      9.37774     -52.1049 
-6.17333e-05      11.9154     -47.0416 
-7.77886e-05      7.40897      149.144 
-4.87670e-05      4.02227      91.9992 
-6.33952e-05      12.9431     -133.811 
4.54519e-05      10.3063     -21.6356 
-4.91863e-05      10.7817     -20.1817 
-7.67085e-05      9.54019     0.599391 
-1.66482e-05      9.62258      8.36706 
3.09765e-05      11.0667     -56.0513 
0.000147737      11.2945     -151.439 
1.65348e-05      7.68765     -78.7482 
-6.16880e-05      10.2979     -41.7715 
-0.000173669      9.68142      10.4721 
1.64850e-05      8.55860     -140.882 
0.000183514      10.3241      16.0810 
6.29669e-05      10.4425     -133.136 
-0.000236373      10.5466      164.038 
3.25494e-05      8.22072     -85.9539 
6.15555e-05      11.6096      123.690 
7.66445e-05      8.16663      47.2826 
3.14505e-05      6.64695      92.5882 
4.64334e-05      8.55146     -120.343 
-1.62721e-05      5.69998      179.796 
3.15932e-05      9.71502      113.928 
-2.85577e-05      10.3302     -12.6381 
-0.000159061      10.7582      71.1253 
0.000133170      13.3503     -45.3644 
5.85862e-05      10.2204     -127.206 
4.60402e-05      8.71183      13.8136 
-4.58281e-05      3.65238      47.6645 
-7.19510e-05      5.63983     -171.638 
-1.60392e-05      8.86721     -71.7276 
-1.59435e-05      11.7058     -124.559 
5.99527e-05      5.87272      52.1886 
-0.000169407      9.98318      6.44339 
1.58519e-05      7.57829     -160.417 
-0.000157257      10.8007     -20.1447 
-0.000223563      10.3105     -12.6627 
0.000179666      8.21931     -86.0948 
-1.57643e-05      8.44803      177.556 
-0.000100695      13.9002     -132.552 
2.96913e-05      8.15544     -132.218 
0.000127243      11.8411      59.6683 
0.000160118      7.43417      102.427 
1.56976e-05      11.7491      47.4848 
2.88972e-05      10.7792     -40.6355 
-1.56356e-05      2.89169     -102.788 
-1.55956e-05      13.3378     -133.967 
5.73581e-05      8.74149     -106.072 
-4.19277e-05      12.2354      49.0435 
0.000128373      7.62256     -160.373 
0.000126475      11.9755     -138.724 
-0.000150413      8.87334     -71.6080 
-4.47883e-05      5.34141      38.1595 
1.54417e-05      10.7638     -40.7057 
-4.45998e-05      9.15288      142.277 
-1.54008e-05      3.61393     -128.712 
0.000124098      12.9404     -45.1879 
-0.000166598      10.3847     -116.417 
-7.16190e-05      8.82639     -156.920 
6.81937e-05      9.94624     -16.8313 
-2.91024e-05      12.0265     -133.248 
-5.48498e-05      13.0036      131.758 
-2.93924e-05      13.8748     -134.124 
2.95331e-05      9.88305      47.7881 
-0.000122833      13.1068      40.5444 
0.000266909      9.62432     -56.4413 
-5.57855e-05      11.7169     -124.638 
-1.50769e-05      10.1662     -151.570 
-1.50858e-05      8.11333      122.003 
-5.60263e-05      10.8700     -148.620 
1.50534e-05      4.85425     -132.833 
1.49898e-05      9.20679     -92.2421 
0.000212540      13.8452     -42.4235 
-1.47765e-05      10.5940      134.004 
-2.79786e-05      8.70694      57.9522 
1.47610e-05      11.0105     -63.5747 
0.000173202      9.37629      75.5500 
-2.73967e-05      12.6963      36.5455 
1.47870e-05      11.7771      47.4763 
4.19814e-05      9.33506      65.5755 
-1.47056e-05      12.4245     -125.301 
2.89658e-05      7.78765     -167.394 
-5.62732e-05      12.7419     -135.062 
2.85531e-05      9.70445      114.082 
-5.23552e-05      5.67972      179.796 
-4.22990e-05      8.68629     -133.505 
1.45597e-05      11.2490     -155.305 
-4.21764e-05      10.5076     -141.646 
8.29287e-05      10.9924     -63.5277 
-5.39746e-05      13.8889     -134.184 
1.45385e-05      8.84208     -136.561 
2.76015e-05      5.04871     -135.163 
-2.65052e-05      6.67904     -139.251 
4.27057e-05      9.84769     -166.615 
2.83308e-05      7.93337      26.1773 
-4.18800e-05      10.6149      57.7761 
-1.43494e-05      4.93853      125.108 
1.43428e-05      12.4638      48.1212 
2.81053e-05      5.36539      2.56508 
1.43627e-05      11.2955     -149.575 
6.66325e-05      10.4277     -133.213 
1.42598e-05      11.4947     -38.7831 
4.13380e-05      8.81888      86.2287 
-0.000105520      8.72184      115.681 
-4.06522e-05      10.6222      134.010 
4.05636e-05      8.73151      13.7819 
9.27501e-05      11.6208      123.773 
5.25818e-05      6.72740      99.2364 
-8.14801e-05      10.8948     -25.9050 
-6.74514e-05      9.34892     -160.636 
7.93999e-05      11.2781     -149.523 
-6.57549e-05      11.0280      42.4271 
1.39557e-05      6.49267      93.5317 
7.83015e-05      11.6995      58.9190 
-3.89174e-05      13.3102     -133.965 
-6.52438e-05      2.97879     -117.598 
4.06685e-05      9.27881     -61.8329 
-3.95035e-05      12.4362     -125.377 
-0.000142693      13.0010     -130.944 
2.70440e-05      10.4417      115.042 
-1.38373e-05      8.71731      57.8435 
7.95242e-05      9.43444     -165.641 
-1.37989e-05      9.40993      25.9684 
4.02303e-05      7.48805      42.5104 
6.60441e-05      9.49109      133.892 
0.000103699      9.86667     -166.641 
0.000142020      13.4239     -138.926 
3.99424e-05      9.15444     -21.8023 
-3.82566e-05      8.08581      121.961 
-2.65977e-05      12.2936      40.8418 
1.36703e-05      12.6895      138.066 
-2.64328e-05      9.64904     -11.3562 
-1.36000e-05      7.53937      59.5556 
3.93394e-05      9.91116      47.7832 
2.66356e-05      11.5099     -38.7222 
5.20127e-05      8.29980      49.5909 
0.000166663      13.8520      43.1847 
-1.34838e-05      12.9901      131.691 
2.65405e-05      12.4919      48.1167 
7.88177e-05      5.88874      52.3094 
-0.000128056      12.4863      39.6063 
-8.99177e-05      10.9354     -156.388 
3.89475e-05      11.2306     -155.262 
-2.62927e-05      6.65153     -139.268 
1.34069e-05      7.92832     -55.0675 
3.83584e-05      7.81186     -167.281 
5.22030e-05      10.2081      175.730 
2.64396e-05      8.37091     -123.993 
-2.63420e-05      10.0129     -97.8046 
-1.33058e-05      6.18062     -135.394 
3.89424e-05      12.3879     -34.4091 
-3.84137e-05      12.8044     -37.1929 
5.22594e-05      10.2941     -166.747 
5.10076e-05      8.38786      113.019 
-3.85906e-05      9.70060      10.4511 
-1.32178e-05      5.87963      104.985 
8.92998e-05      10.9834     -63.6223 
0.000101836      13.8958      46.9847 
6.25595e-05      6.55872     -149.994 
-2.58278e-05      6.95319      7.10431 
-1.31265e-05      7.43611      149.087 
7.59759e-05      13.3645     -45.3025 
-2.58451e-05      11.4460     -125.829 
3.83628e-05      10.2478     -127.227 
-5.06861e-05      9.37476     -160.560 
2.53899e-05      8.14184     -132.112 
0.000110433      12.4876     -132.272 
6.32540e-05      10.5967      22.6445 
3.81216e-05      11.7157      123.582 
-1.30005e-05      10.9459      44.8528 
-1.29653e-05      9.35723     -74.1202 
2.53770e-05      9.45910     -165.553 
1.29838e-05      10.3244     -21.5957 
-2.53147e-05      8.65902     -70.8522 
6.30191e-05      13.7324     -45.4118 
-5.03516e-05      8.88490     -133.357 
1.29142e-05      10.0876     -108.614 
1.28866e-05      8.18039      47.1783 
-5.04639e-05      10.7398      71.0916 
-1.28387e-05      7.52256      59.4803 
-8.79552e-05      13.2135      129.472 
-1.28569e-05      9.64474      8.46486 
6.28748e-05      11.6813     -135.138 
-1.28022e-05      4.02300      92.2769 
-6.29222e-05      10.4451      106.005 
-1.27857e-05      9.99538     -66.4083 
3.74862e-05      8.47958     -119.224 
-2.46174e-05      3.63927      47.8916 
-5.00215e-05      12.9319     -131.801 
1.27491e-05      11.3322     -51.5926 
-3.77136e-05      9.39218     -136.207 
-1.27454e-05      11.6315      54.5874 
-5.00638e-05      10.8765     -25.9516 
3.78107e-05      10.2895     -166.857 
-1.26822e-05      12.4479     -125.453 
1.26721e-05      9.28839     -61.7228 
-3.75900e-05      3.83357      94.7832 
1.26439e-05      12.6750      138.007 
-2.50081e-05      11.5418      138.020 
-4.99134e-05      10.6002      108.708 
1.25963e-05      5.76971      62.5451 
-5.26619e-05      9.15656      142.455 
-1.25664e-05      11.4342     -125.747 
1.25284e-05      8.36921      113.073 
2.50122e-05      9.50570      133.807 
-1.25400e-05      9.46140     -82.4714 
-2.49243e-05      9.94025     -97.2817 
-2.48653e-05      10.7646      71.0270 
2.48289e-05      12.3711     -34.4622 
1.24771e-05      8.56711      100.630 
-2.48039e-05      10.9391     -146.863 
2.48712e-05      14.1998      45.7986 
-1.24821e-05      10.5799     -124.683 
3.71625e-05      10.3092     -166.882 
2.48185e-05      5.11691      4.71061 
1.24686e-05      10.1327     -157.484 
1.23940e-05      7.92478      26.0507 
1.23966e-05      9.07745     -3.53556 
1.23861e-05      11.8313      59.7498 
1.23441e-05      9.52034      133.723 
-1.23497e-05      12.1353      132.128 
-1.23729e-05      8.42345     -16.4137 
-1.23332e-05      5.87442      104.794 
1.23787e-05      10.5726      60.0413 
-1.23294e-05      9.41931      25.8036 
-1.23153e-05      13.2876      39.9945 
-1.22739e-05      13.0129     -134.002 
-1.23151e-05      10.3575     -116.366 
-0.000125420      13.2038     -137.149 
1.47168e-05      12.3625      43.8195 
0.000116588      9.12509     -103.307 
9.16541e-05      12.3490      43.7542 
4.01843e-05      7.06031      101.439 
5.21347e-05      11.6617      59.0350 
6.56931e-05      6.94737     -147.819 
-7.76676e-05      12.7276     -135.127 
6.45402e-05      8.77870      161.402 
5.25422e-05      8.74621      112.168 
-6.43939e-05      11.5676      32.6468 
7.76917e-05      10.5690     -125.916 
2.70068e-05      9.20758     -92.3634 
-1.36303e-05      10.0198      102.566 
3.89866e-05      9.69924      32.2798 
3.80967e-05      10.0558     -108.436 
-3.82468e-05      9.77110      174.124 
-1.31049e-05      10.2640     -164.284 
-1.30884e-05      9.16077      142.629 
1.30279e-05      7.76788     -167.361 
-1.29961e-05      9.37869     -136.293 
2.56241e-05      12.4192     -132.064 
3.76529e-05      5.11663     -99.9058 
-1.29105e-05      12.6857     -44.8083 
3.74135e-05      11.4727      36.3497 
-2.49493e-05      10.4146      128.059 
2.53070e-05      9.46369      88.4279 
3.72537e-05      10.8631      60.5575 
-1.27787e-05      5.60338     -171.382 
3.70505e-05      11.8264     -55.9611 
-2.46036e-05      8.56382     -18.0968 
2.49337e-05      9.18730     -92.2468 
-2.49226e-05      12.7814      40.4951 
-2.46604e-05      6.47765      7.62885 
-2.47449e-05      10.2445     -164.253 
2.46572e-05      9.64347     -64.4439 
-3.70071e-05      12.6715     -44.7433 
3.67052e-05      10.2818     -45.3933 
-3.65077e-05      9.36459     -136.211 
3.63555e-05      10.3468      124.768 
1.24957e-05      8.83661      29.1160 
-1.24656e-05      6.00104      113.571 
-2.44449e-05      10.1007      179.434 
-2.44388e-05      12.5633      39.3161 
-2.42580e-05      4.18777      96.5851 
1.23519e-05      10.5532     -125.978 
-2.43007e-05      13.0733      48.1619 
2.41178e-05      8.72946     -9.09553 
-2.40603e-05      10.6081      134.083 
1.22324e-05      12.4789      48.1833 
1.21668e-05      12.4056     -131.994 
1.21276e-05      10.1921     -127.185 
1.21183e-05      11.7299     -133.136 
1.20847e-05      8.27141      61.0772 
-2.38884e-05      13.2187     -137.208 
-1.20431e-05      8.18058     -89.3010 
-1.19887e-05      11.6038      54.6131 
1.19505e-05      9.06514      88.1025 
-1.19645e-05      6.05797      33.0090 
1.19437e-05      10.5809     -126.004 
-1.18917e-05      5.62341     -171.413 
1.18407e-05      11.7161     -133.064 
1.18223e-05      9.87605      30.1477 
! Tentative model.
! Flux (Jy) Radius (mas)  Theta (deg)  Major FWHM (mas)  Axial ratio   Phi (deg) T \
! Freq (Hz)     SpecIndex
1.29552e-05      10.2673     -45.3157 
