! Center RA: 12 21 31.69052,  Dec: +28 13 58.50011 (2000.0)
! Established model.
! Flux (Jy) Radius (mas)  Theta (deg)  Major FWHM (mas)  Axial ratio   Phi (deg) T \
! Freq (Hz)     SpecIndex
 0.0386463    0.0202604      0.00000 
 0.0453862      0.00000      0.00000 
0.00308207    0.0202604      90.0000 
 0.0227945    0.0286526      45.0000 
0.00708142     0.832685      114.094 
0.00801288     0.824622      112.808 
0.00303804    0.0562440      45.0000 
0.00199643     0.817257      111.547 
0.00761340     0.345185      100.015 
0.00207768    0.0720098      33.5245 
0.000624181     0.349279      103.290 
0.00234815     0.761740      113.206 
0.000590873     0.329594      104.100 
 0.0110281     0.134233      63.4349 
0.000840488     0.780402      112.620 
0.00455901     0.325253      100.636 
0.000797845     0.798447      112.081 
0.00153878     0.743162      113.822 
0.000508677     0.810035      110.214 
0.00253247     0.821746      108.418 
0.00255884     0.116465      58.9729 
0.00269096     0.690733      112.079 
0.00227571     0.475398      104.628 
0.000217563     0.828371      109.748 
0.00286534     0.751254      115.183 
0.00193330     0.495028      104.036 
0.00304365     0.840993      107.982 
0.00189541     0.306099      101.310 
0.00112019     0.621223      104.909 
0.000677720     0.322129      97.0919 
0.00608092    0.0286526     -135.000 
0.00321673    0.0202604     -90.0000 
0.00157556     0.616492      103.157 
0.000172300     0.835176      106.709 
0.00128957     0.860287      107.566 
0.00323226     0.470689      102.241 
0.00103194     0.885104      108.435 
0.00188855     0.778270      115.898 
0.000360597     0.128090      51.1829 
0.000281441     0.302778      97.5477 
0.00140095     0.760096      116.565 
0.00159621     0.910821      109.241 
0.000952938     0.612198      101.310 
0.000136337     0.291183      106.006 
0.000631205     0.320306      93.6266 
0.00132823     0.278155      111.026 
0.000366521     0.917436      110.391 
0.000472934     0.795867      101.585 
0.000796213     0.608549      99.4391 
0.00272324     0.936453      109.960 
0.000116858     0.805400      116.565 
0.000846418     0.319665      90.0000 
0.000112811     0.787330      117.224 
0.000219627     0.831621      117.166 
0.00170630     0.772985      100.459 
0.000160413     0.286050      114.817 
0.000202971     0.145849      74.1761 
0.000586103     0.858942      117.752 
0.00151487     0.141777      81.7841 
0.000766625     0.260038      112.569 
0.000103399    0.0896014      26.3505 
0.00101052     0.605655      97.6181 
0.000456754     0.268467      116.565 
0.00137889     0.107434      21.7271 
0.000406029     0.320306      86.3734 
0.00129327     0.769565      98.9755 
0.00130556     0.159832      90.0000 
0.000281192     0.306099      78.6901 
0.000340787     0.868561      118.934 
0.00118308     0.769370      117.915 
0.00292549    0.0562440     -135.000 
0.000245749     0.297155      70.3754 
0.000243855     0.943561      111.116 
0.000154591     0.339925      90.0000 
0.000908498     0.603304      95.7106 
0.000802805     0.885686      118.324 
0.00121877     0.961787      110.697 
0.000227756     0.278118      120.301 
0.000528639     0.304558      66.7829 
0.000292747     0.766666      97.4798 
0.000756045     0.786014      97.2946 
0.000135148     0.304887      121.617 
6.97113e-05     0.360755      93.2195 
0.000192910     0.380236      93.0544 
0.000358975     0.895107      119.423 
0.000192002     0.295127      61.6104 
6.26571e-05     0.315980      124.747 
0.000521354     0.588572      99.7625 
0.000298016     0.506166      99.1272 
0.000188603     0.631341      100.963 
0.000278893     0.509625      101.293 
0.000415862     0.753070      100.739 
9.13826e-05     0.486913      99.4914 
0.000172159     0.635505      102.756 
0.000409400     0.490508      101.740 
8.20164e-05     0.659734      104.020 
0.000891332     0.950796      104.628 
0.000230482     0.858831      114.796 
0.000152525     0.800901      92.8463 
0.000154971     0.253192      108.489 
7.61055e-05     0.209153      106.680 
7.59550e-05     0.756949      102.190 
0.000533257     0.184432      102.453 
0.000144055     0.466942      99.9013 
7.39258e-05     0.679409      103.606 
0.000419246     0.867194      115.966 
0.000412763     0.161111      97.2243 
0.000141088     0.800169      91.4509 
0.000382658     0.965599      103.161 
0.000134864     0.113549      45.0000 
6.85970e-05     0.737890      102.510 
6.81344e-05     0.742697      117.238 
0.000320584     0.820173      90.0000 
0.000190524     0.752186      118.610 
0.000180735     0.876255      117.158 
0.00121952     0.128090      38.8171 
0.000248376     0.885454      115.392 
0.000792416      1.86427      99.2652 
0.000228240     0.761721      119.899 
0.000117788     0.961344      102.029 
0.000171849     0.302778      82.4523 
0.000161577     0.820423      88.5849 
0.000215701     0.894329      116.565 
0.000111815     0.961610      106.922 
0.000418224     0.749560      99.2171 
0.000111954     0.957327      100.843 
5.57657e-05      1.16287      86.0408 
0.00144186      1.16438      85.0830 
5.37394e-05     0.953723      99.6476 
0.000257543      1.86112      98.6496 
5.26873e-05     0.967701      108.070 
0.000102360     0.580403      87.9995 
5.19083e-05     0.950648      98.4883 
0.000202669      1.97656      101.075 
0.000237936     0.772020      121.203 
0.000100411     0.954815      109.560 
5.07103e-05     0.310708      75.0240 
0.000171697     0.925372      96.1914 
0.00220888      1.84109      98.7444 
0.000453910      1.29890      99.7453 
9.67874e-05      2.00040      101.533 
0.000400042     0.903572      117.714 
0.000183268     0.581411      86.0777 
0.000524170      1.99645      100.964 
0.000297706     0.746582      97.6822 
0.000175155     0.313099      63.3735 
8.62840e-05     0.189835      108.435 
4.42140e-05     0.912496      115.996 
0.000143659     0.923472      94.9879 
4.32599e-05     0.368782      130.627 
0.000311368     0.951048      112.255 
0.000272791     0.782708      122.471 
0.000122049     0.495028      75.9638 
0.000414200      1.31814      99.6017 
8.10748e-05     0.583147      84.0913 
8.00140e-05     0.381773      132.849 
0.000155280     0.322315      60.2717 
0.000357162      1.79102      106.203 
0.000108226     0.940038      113.823 
0.000191696      2.01634      100.854 
0.000216656     0.912809      118.798 
7.34931e-05     0.197181      114.029 
0.000254059     0.921931      93.7334 
0.000109118     0.585580      82.1191 
7.37315e-05     0.424483      135.000 
0.000202950     0.744225      96.1935 
0.000104346     0.500328      73.7123 
0.000433837      2.01276      100.309 
3.59818e-05     0.930071      115.469 
0.000104690     0.332828      57.2415 
0.000100805     0.438496      136.803 
0.000747392    0.0720098     -146.476 
0.000272456     0.905232      120.540 
0.000213579     0.793353      123.660 
9.75423e-05      1.30249      100.624 
0.000126811     0.588572      80.2375 
0.000559815     0.958607      113.334 
3.29649e-05     0.205897      118.994 
0.000125533     0.327950      52.3435 
0.000579439      1.32167      100.468 
0.000126874     0.134233      26.5651 
6.40889e-05      1.18867      83.2204 
0.000177553     0.453478      138.555 
0.000120754      1.23647      80.6749 
3.12315e-05     0.480914      73.0353 
0.000368674      3.13052      102.177 
3.09799e-05     0.178866      116.673 
0.000142898      1.81619      106.638 
0.000463789      3.15032      102.100 
0.000113569     0.486965      70.8391 
0.000117252      2.03196      100.210 
0.000115409     0.144435      33.7726 
8.29397e-05     0.188432      121.981 
0.000111215      1.23978      79.7851 
2.91346e-05     0.742313      94.6386 
0.000901276      2.59986      112.627 
0.000298177     0.340220      49.7414 
8.19899e-05     0.761182      92.9950 
2.83370e-05     0.592344      78.3057 
0.000847533      2.02847      99.6470 
0.000295422     0.152624      23.1616 
0.000272034     0.899141      122.284 
5.33214e-05      1.79678      106.823 
0.000149051     0.580127      136.415 
5.28683e-05     0.616492      76.8433 
0.000124631     0.468857      140.194 
2.67550e-05      1.81881      98.2070 
0.000762056      1.57287      82.6817 
0.000164702      1.14266      85.9707 
2.59114e-05      1.26268      79.0373 
0.000310212      4.75914      110.412 
0.000540097      3.10914      94.4295 
0.000224204     0.804760      124.861 
9.51550e-05     0.493986      68.6188 
2.51782e-05     0.621223      75.0909 
2.51374e-05     0.969133      111.818 
0.000119370     0.199903      126.913 
0.000148392     0.760412      91.5268 
0.000336644      1.82209      107.248 
0.000133198     0.657660      70.4693 
4.74995e-05      2.80881      98.1864 
0.000354955     0.976552      112.881 
0.000232608      2.80599      97.7769 
0.000351653      4.77743      110.331 
0.000215509      1.10137      60.6231 
0.000124633      1.30622      101.465 
0.000104897     0.212689      131.281 
0.000194927     0.594411      137.712 
2.17551e-05      1.26654      78.1708 
8.26573e-05     0.456152      142.150 
0.000231180     0.909711      123.323 
0.000283904    0.0896014     -153.650 
0.000410392     0.339586      45.0000 
2.10147e-05      2.10225      111.198 
0.000171910     0.170734      20.5855 
0.000294421      2.10938      111.692 
6.08316e-05      1.28180      67.0525 
0.000159723     0.892851      124.037 
7.39128e-05     0.950322      40.7093 
0.000132440      2.80342      97.3818 
0.000216967      1.27132      65.8555 
0.000507129      2.02517      99.0819 
0.000253800     0.471709      143.604 
0.000276152      3.30090      99.0640 
0.000108957      3.10764      94.0570 
1.89838e-05     0.226037      135.000 
0.000320243      3.14614      101.739 
7.28013e-05     0.710310      32.3134 
0.000261827      1.55541      81.8738 
0.000287784     0.966811      114.437 
0.000348640      1.32535      101.297 
0.000181257     0.816509      126.027 
7.08710e-05      2.80089      96.9708 
1.83469e-05     0.212689      138.719 
0.000234726      2.04844      99.5520 
3.53710e-05     0.228306      142.075 
6.10291e-05     0.760142      90.0000 
0.000130607     0.720656      1.61102 
0.000152005      3.08685      93.7214 
0.000272944     0.278155      158.974 
1.69781e-05      2.79850      96.5591 
0.000151583     0.693272      33.2085 
3.32626e-05      2.79634      96.1619 
0.000253536     0.189835      18.4349 
0.000100693      1.12193      86.9328 
4.81615e-05     0.608228      136.300 
0.000328900      1.27974      65.0278 
0.000238478      2.71165      103.213 
4.73937e-05      3.29777      98.7164 
7.65844e-05      1.11107      59.7463 
1.59969e-05      2.79424      95.7489 
3.12336e-05      2.79473      99.0526 
4.58039e-05      2.79228      95.3352 
0.000301739      2.44102      97.5248 
0.000115313      3.24117      91.4195 
0.000294484      1.83812      98.1202 
0.000122542     0.623033      137.587 
0.000190871     0.459977      145.636 
7.20645e-05     0.720372      0.00000 
1.47583e-05     0.965195      39.9539 
1.46970e-05      3.08560      93.3460 
4.24105e-05      2.79053      94.9364 
0.000355798     0.904347      125.101 
0.000266364      1.11907      61.1320 
4.12697e-05      3.00112      91.5331 
9.38042e-05      1.82797      107.832 
0.000494033      3.34213      87.9413 
5.56247e-05      2.66012      90.0000 
4.07261e-05      1.04410      110.180 
1.39216e-05      1.92065      91.1865 
0.000210042      3.77215      85.4361 
0.000195499      2.11696      112.201 
0.000163657      1.82503      80.5338 
9.35025e-05      3.79005      85.7649 
0.000572715      2.66020      89.5636 
4.84356e-05     0.740159      1.56856 
0.000283591      3.80781      99.0707 
0.000267150      4.76624      110.641 
0.000413761      3.83468      110.133 
2.57075e-05     0.676411      34.1484 
4.90862e-05      3.22091      91.4284 
3.82955e-05      1.05645      108.770 
7.57380e-05      3.84495      87.0131 
2.47576e-05      2.78886      94.5217 
0.000284534      3.14208      101.377 
9.27443e-05      3.10632      93.6981 
6.37507e-05      2.67963      90.0000 
0.000164636     0.353651      42.7644 
1.24269e-05     0.920997      124.376 
0.000204249     0.476838      147.010 
0.000191295      1.06314      109.803 
1.22592e-05      2.79799      99.4623 
0.000241416      3.86330      87.6289 
0.000119798      1.80869      108.029 
4.54146e-05     0.209153      16.6796 
0.000197416     0.297155      160.375 
0.000264368      3.79094      99.4101 
0.000210515     0.204262      11.2274 
0.000117848     0.651151      137.522 
4.52454e-05      3.66161      88.1210 
0.000194028      1.34159      100.311 
3.34033e-05      3.00065      91.1463 
0.000289564      1.82834      79.9307 
6.31010e-05      2.93388      101.000 
1.13646e-05      2.80831      94.4903 
2.20206e-05     0.926189      13.7323 
4.32570e-05      3.20121      91.7866 
4.86409e-05      2.78144      99.9426 
3.01059e-05     0.107434     -158.273 
2.16225e-05     0.475177      67.7281 
2.17554e-05      3.75039      85.7200 
0.000107902     0.975367      115.520 
0.000122685      3.70668      86.5995 
0.000160653      1.28810      64.2410 
0.000128718     0.912370      15.2593 
0.000190512     0.843774      126.320 
2.00756e-05      2.80685      94.0933 
9.93756e-05      2.09821      112.410 
0.000304579     0.466502      149.020 
0.000159350      5.09426      105.017 
3.73058e-05      3.10508      93.3250 
6.38798e-05      2.98005      90.7647 
0.000139134      3.18171      91.7975 
1.00046e-05      3.68430      87.1982 
0.000428774     0.223431      10.2532 
6.56797e-05     0.467874      70.0247 
0.000236516      3.86419      87.3287 
9.73181e-06     0.740159      88.4314 
9.67504e-06      1.07494      108.435 
0.000106643      1.06991      110.787 
5.46365e-05      1.83546      97.5172 
0.000402458     0.679225      137.373 
9.46813e-06     0.665655      32.7585 
8.42985e-05      2.93782      101.387 
6.82412e-05      1.81507      108.637 
0.000402084      1.12862      60.2646 
9.10542e-06     0.888456      125.825 
0.000201584      2.61857      112.457 
0.000220993      1.08152      109.453 
1.67261e-05     0.760412      1.52677 
0.000323134     0.916147      126.138 
2.56010e-05      1.57547      81.9780 
3.10833e-05      2.80548      93.6805 
7.17857e-05     0.993009      115.035 
4.69777e-05      3.79319      85.1658 
4.93293e-05      1.85818      98.0319 
8.18486e-05     0.126477     -161.673 
0.000173781      3.70794      86.2870 
0.000430422      3.84170      110.417 
0.000116363      1.59296      82.7746 
2.82468e-05     0.649334      33.6901 
6.74228e-05      1.63839      70.0214 
7.76917e-05     0.316312      161.608 
1.56719e-05      2.97986      90.3896 
1.50787e-05     0.740950      86.9232 
9.69969e-05      2.12469      112.707 
5.77660e-05      1.83199      79.3068 
2.98378e-05      2.10602      112.920 
0.000348847      1.85555      97.4354 
2.21448e-05      1.04771      113.646 
0.000108675      3.86519      87.0287 
0.000103842      1.35811      99.3166 
4.42214e-05      1.12141      58.8521 
5.83837e-05      1.82164      109.241 
0.000274882     0.340220      40.2586 
6.75018e-05      2.96035      90.3921 
0.000175890      3.34292      87.5942 
1.46945e-05      1.25851      107.560 
1.44167e-05      2.05086      113.573 
7.46180e-05      3.18115      91.4463 
7.37836e-05      2.94188      101.774 
0.000240824      1.81209      79.1880 
0.000109683      3.68535      86.8836 
5.04963e-05      2.69266      103.308 
0.000372157     0.483985      150.255 
7.90581e-05      1.46698      95.4890 
3.38565e-05      1.23993      107.832 
4.37529e-05      2.76568      100.411 
1.32322e-05      1.01966      115.547 
3.92236e-05      3.90059      88.8205 
0.000215672     0.932586      125.404 
0.000121520      3.80467      98.7694 
0.000219719      2.00591      99.1699 
0.000154675      5.08904      104.796 
2.60239e-05      3.81338      85.1914 
0.000117869      1.64542      69.3583 
0.000103461      2.03299      113.793 
5.03387e-05      1.03798      115.064 
1.29802e-05      2.67971      89.5668 
5.09427e-05      3.86625      86.7400 
7.90305e-05     0.878907      17.1819 
6.52969e-06     0.760412      88.4732 
1.84488e-05      2.80425      93.2674 
7.56296e-05      3.43341      84.9847 
0.000173681      1.24628      108.719 
0.000128901      2.43854      97.0703 
3.65318e-05     0.184676      130.551 
1.23158e-05      3.16146      91.8090 
7.57100e-05      3.92022      89.4187 
5.88900e-05     0.310708      165.024 
2.21779e-05      2.40687      105.423 
6.30127e-05      3.86745      86.4403 
0.000128926      1.27894      63.0290 
0.000148158      3.16090      91.4556 
1.72530e-05      2.96028      90.0000 
1.04392e-05     0.761182      87.0050 
3.44743e-05      3.79431      99.7119 
5.61191e-06      1.00142      116.047 
0.000215842      2.66042      89.1435 
0.000102250      4.77316      110.860 
0.000113846      2.94002      90.0000 
1.04050e-05     0.632576      34.7080 
1.60396e-05      1.05568      114.616 
6.12202e-05      3.86871      86.1519 
5.01170e-05      2.70726      102.811 
4.72605e-05      1.83513      110.413 
1.00898e-05      1.01048      117.079 
1.93949e-05      1.48640      95.4170 
1.00953e-05      1.02856      116.565 
1.01787e-05     0.243395      9.40424 
2.97112e-05      2.62609      112.850 
5.25908e-05      3.43517      84.6605 
9.99629e-05      1.65268      68.7010 
9.61222e-06      1.04672      116.069 
9.49216e-05      2.94593      102.146 
0.000125305      2.19306      83.7139 
6.91123e-05      3.92861      86.2107 
2.29147e-05     0.855930      127.412 
3.64542e-05      1.59554      82.0795 
2.09382e-05      2.80321      92.8693 
8.47298e-05      1.08817      110.422 
8.10465e-05      2.64477      112.680 
9.10013e-06     0.806114      133.982 
5.31939e-05     0.329594      165.900 
5.86446e-05      3.92007      89.7039 
4.59342e-06      3.81513      84.8882 
1.24735e-05     0.571959      36.4640 
7.82439e-05     0.145849     -164.176 
3.23960e-05      2.13230      113.191 
1.30184e-05      1.00269      118.617 
0.000130256      2.77716      109.346 
2.17910e-05      3.81812      98.1349 
3.62443e-05      3.81699      84.5853 
6.80406e-05      3.41500      84.6289 
7.71357e-05     0.820313      135.000 
0.000176012      3.93000      85.9159 
1.63650e-05      3.81530      97.8337 
3.69154e-05      1.84230      111.004 
0.000117943     0.905232      96.3297 
5.52272e-05      2.01447      114.025 
9.34811e-05     0.872109      126.604 
1.95121e-05      3.04219      87.7382 
9.90513e-06      1.01218      119.587 
7.53621e-05      1.65536      101.850 
0.000119598      1.67157      68.9533 
8.00131e-05      3.34379      87.2602 
9.18060e-05      3.83268      97.4923 
7.66971e-05     0.994616      120.163 
1.09545e-05     0.883858      95.2120 
0.000143458     0.501018      151.362 
8.27901e-05      3.04305      87.3570 
3.69998e-06      2.74952      100.902 
0.000112843      3.96788      104.601 
-0.000595818     0.651397      107.913 
8.16279e-05      1.26502      50.7775 
9.18067e-05      3.41695      84.2907 
0.000198523     0.461573      72.3015 
2.17359e-05      3.83357      85.2168 
3.45347e-06      1.63554      78.0044 
3.43212e-06      1.07726      111.794 
6.67357e-06     0.349279      166.710 
6.27042e-05      2.91983      89.6024 
8.83363e-05      2.67061      112.920 
4.31594e-05      1.63987      77.3119 
3.33207e-06      2.94009      89.6052 
0.000102876      2.19093      84.2406 
4.77366e-05      3.92002      90.0000 
3.73000e-05     0.184432      12.4530 
2.86333e-05      1.84938      111.568 
2.07032e-05     0.345185      169.985 
1.82875e-05     0.948556      124.721 
8.18250e-05     0.510656      149.441 
1.46942e-05      3.84855      110.689 
6.10401e-06      5.08410      104.584 
0.000142146      3.93150      85.6214 
3.77065e-05     0.834763      135.983 
3.43390e-05      5.05941      104.420 
1.98011e-05     0.898283      16.8001 
8.37219e-06     0.971135      122.376 
5.88469e-05      1.99598      114.262 
1.47496e-05      1.25293      109.596 
2.46451e-05     0.365154      170.538 
2.69780e-06      3.83019      97.2030 
3.50318e-05     0.954085      123.028 
7.88114e-06      3.85133      111.631 
5.28062e-06     0.977152      120.760 
2.50231e-05      3.85029      97.1652 
2.21786e-05     0.365154     -170.538 
-8.90885e-05      2.40007      89.0505 
2.12081e-05      2.15893      113.473 
2.17005e-05      3.85884      111.911 
1.18706e-05      4.78041      111.087 
7.28998e-06      1.28826      62.2259 
1.20260e-05      2.23260      96.1743 
1.41009e-05     0.164706      13.9729 
2.43910e-06      1.03778      117.566 
7.01765e-06      3.83199      85.5075 
1.38721e-05     0.937164      123.703 
-5.36827e-05      2.32154      112.802 
2.40167e-06      2.79557      109.213 
9.24102e-06      1.60150      80.6701 
-3.68648e-05      3.58455      83.2677 
4.66449e-06      1.01986      118.092 
-3.44660e-05      1.40672      119.847 
-3.21214e-05     0.394577      120.515 
-2.28423e-05      1.87842      71.3624 
1.37006e-05     0.325575      42.4780 
1.14034e-05     0.860182      125.520 
-1.59140e-05     0.809071      50.0039 
6.80378e-06     0.455823      74.7283 
2.25775e-06      3.84781      96.8658 
2.25091e-06      3.30415      99.4110 
0.000658578      6.86030     -89.4986 
0.000209875      3.55789      15.9886 
0.000415797      11.6046      145.816 
0.000368134      7.46961     -62.4053 
0.000646449      9.65391      131.051 
0.000326883      5.92147     -88.6421 
0.000561131      3.53842      16.0789 
0.000382532      8.42363     -24.2522 
0.000425949      14.1737     -133.857 
0.000582578      10.0271     -107.171 
-0.000450121      3.17997     -148.106 
-0.000256943      9.60045     -89.2834 
-0.000337581      8.69201      30.8738 
0.000683406      10.8380     -112.684 
0.000322699      6.70988      3.07711 
-4.55116e-05      9.99937     -129.644 
0.000212946      4.07291      85.4985 
-4.46840e-05      11.2328     -56.6199 
0.000474654      5.14623     -84.2005 
0.000129212      8.51514      62.8908 
0.000290516      8.34854      136.941 
0.000354702      7.97877     -149.579 
-8.73143e-05      10.0150     -129.570 
0.000470600      6.97096     -107.187 
0.000313804      13.2915     -139.456 
-0.000281702      11.2217     -56.7063 
0.000313212      11.1813     -131.302 
0.000156294      10.7692     -26.4704 
0.000234579      11.7681     -32.3686 
-0.000193251      8.77926     -12.2329 
0.000235487      11.6160      145.733 
0.000306420      6.65551     -42.0799 
-0.000270311      10.0026     -129.484 
-0.000159567      11.2230     -29.5800 
0.000118496      5.94221     -88.4587 
-0.000303254      8.52743     -67.5263 
0.000188860      7.35691      15.7728 
0.000115811      6.78411     -151.470 
-0.000185532      8.40961      117.784 
7.85094e-05      9.59901     -106.583 
0.000188232      6.31853     -4.35904 
-0.000299431      8.93204     -53.2861 
0.000117094      12.1341     -125.000 
0.000151026      8.53318      62.9527 
0.000295501      4.05271      85.4760 
0.000149189      7.49277     -86.6356 
-3.88171e-05      11.8530     -37.5279 
-0.000184388      4.99189      15.0912 
-0.000181745      10.9977      65.1591 
-3.80239e-05      8.96629     -101.059 
-7.39643e-05      6.76260      129.480 
0.000145397      8.31990      136.948 
7.40776e-05      9.63365     -64.2872 
-0.000108437      11.8649     -37.6026 
-0.000144015      5.26870     -115.883 
0.000108645      12.9653      42.6264 
3.72542e-05      7.40039      53.9051 
0.000115614      9.59346     -106.472 
-7.21491e-05      11.2177     -57.3007 
3.69811e-05      9.02586     -80.4335 
-7.24790e-05      11.2130     -29.4900 
3.68733e-05      12.1395     -124.870 
7.21935e-05      4.75851     -79.5885 
-0.000107771      8.94714     -101.083 
-3.66664e-05      9.98922      19.7757 
-7.18621e-05      8.67463      30.9425 
-0.000106106      8.63444     -151.949 
-3.61649e-05      13.4739     -130.666 
-0.000105896      9.31716     -66.7366 
-7.09020e-05      11.3137     -45.2848 
-7.04714e-05      9.74890      133.088 
-7.08617e-05      5.49039     -82.2553 
7.06300e-05      5.65026      131.986 
7.03925e-05      9.65191     -64.3394 
7.02579e-05      12.1279     -124.791 
3.52208e-05      7.38892      54.0274 
3.51066e-05      6.13972      69.2038 
3.49063e-05      8.40384      178.230 
3.46753e-05      5.91411     -17.5154 
-3.46434e-05      6.16526      21.9037 
3.45951e-05      6.71096      3.24344 
3.45092e-05      9.18974     -15.3991 
-0.000213575      11.5969     -45.0000 
-0.000103669      4.02937      19.4270 
-0.000179388      3.37043     -132.112 
-6.31463e-05      3.36860     -132.590 
0.000157924      13.6931      46.3011 
-9.72990e-05      7.30228      149.007 
3.30931e-05      6.50260      26.4882 
-9.51781e-05      7.55580     -143.070 
0.000205464      10.5364     -44.3075 
-3.25048e-05      11.3279     -45.2120 
9.22632e-05      9.90264      77.2833 
-0.000106223      4.16513      16.1723 
0.000108228      10.7869      116.184 
0.000223796      6.52944      26.5621 
-0.000119983      14.0315     -43.9599 
-5.99148e-05      7.14129      148.983 
-0.000239306      10.0999     -81.9193 
-0.000378090      4.04848      19.3316 
-0.000129149      11.3141     -45.1424 
0.000134436      9.18821      111.316 
0.000366894      7.98455     -14.2099 
0.000245121      9.65451     -128.271 
0.000198744      10.7687      116.231 
0.000113967      9.37497      50.3682 
-5.64115e-05      7.56799     -142.947 
-0.000127308      11.6201     -42.6971 
-7.95274e-05      10.6506     -146.102 
-0.000147674      9.25011     -49.5600 
0.000102988      6.28555     -73.9278 
-5.07911e-05      9.07508      93.2849 
-2.74651e-05      9.24788     -49.3831 
5.23118e-05      5.48475     -109.826 
5.28479e-05      13.2937     -135.487 
5.30636e-05      10.5832     -119.179 
7.38670e-05      9.89836      77.3935 
-0.000129319      10.1411     -147.154 
-5.22179e-05      9.47566      44.3166 
0.000117606      8.34254     -18.3062 
4.96711e-05      9.26507     -127.808 
-2.66612e-05      7.32969      148.958 
-0.000163774      14.0310     -44.0769 
-2.64092e-05      5.19543     -158.077 
-0.000142790      7.52190      156.163 
0.000114788      8.99196      111.254 
7.13445e-05      5.39052     -133.347 
-5.09455e-05      7.40143      147.470 
-0.000165882      9.44755      44.3114 
0.000123821      4.99804     -106.988 
-4.96196e-05      9.00288     -28.3871 
0.000282697      13.5056      45.2994 
-7.40117e-05      11.4653      42.5943 
-4.96507e-05      7.57201     -143.162 
-4.96405e-05      1.87378     -16.1124 
0.000133913      7.61412      67.6103 
0.000156159      9.94598     -130.352 
-2.53363e-05      3.80064     -139.267 
9.16779e-05      9.64152      123.064 
4.85662e-05      6.50000      53.1327 
2.45584e-05      7.99440      14.4863 
0.000106302      4.18732      136.162 
0.000161198      7.25527     -33.6457 
8.85059e-05      10.5228     -44.2315 
-8.61297e-05      5.17733     -157.997 
6.40284e-05      10.6003     -119.127 
-4.63604e-05      9.73208     -152.856 
-2.38379e-05      10.6057     -146.070 
-4.62137e-05      8.41651      5.31514 
-0.000193578      7.42878      147.419 
-8.71683e-05      9.36972      42.7509 
0.000104265      5.75684      134.018 
6.37096e-05      4.46485     -131.184 
4.51238e-05      13.3082     -135.548 
-0.000184046      6.56196      96.4740 
0.000106369      12.4717     -145.189 
-0.000103215      1.76578     -13.0913 
-0.000215473      5.61720      11.7077 
6.24450e-05      8.91488      114.380 
-0.000102630      8.58223      98.8471 
-2.26618e-05      12.1484      132.196 
-2.25913e-05      7.48445      148.772 
-2.25269e-05      11.4521      42.5224 
2.24165e-05      9.94608     -26.7700 
2.23473e-05      7.97479      14.5227 
-0.000117029      10.6225     -146.131 
4.28187e-05      6.29097     -73.7570 
-4.27057e-05      10.7443      137.491 
2.16450e-05      9.21446      111.387 
-4.08681e-05      8.41841      5.45244 
-0.000103135      11.2685     -126.484 
0.000235641      12.7138     -135.065 
-2.14943e-05      5.51975      152.136 
-9.21145e-05      11.4528      42.3818 
-5.93933e-05      11.9953     -41.9598 
-3.96014e-05      10.1317      133.079 
2.10714e-05      2.65724      160.209 
-5.76621e-05      10.4986     -161.566 
2.10624e-05      9.19959      113.441 
-4.05703e-05      2.55135     -123.812 
3.97313e-05      6.50396      53.3734 
7.72571e-05      3.95972     -72.6570 
-0.000162156      8.80656     -4.42754 
2.09218e-05      8.77920     -93.7883 
-0.000126664      5.02344      150.682 
0.000220522      9.96417     -26.7175 
-3.73871e-05      5.15434     -161.214 
-2.07918e-05      9.23698     -49.6557 
-2.06346e-05      9.02005     -28.3282 
9.28060e-05      5.45316     -138.124 
0.000152556      7.30076      103.462 
2.05971e-05      4.22955      136.344 
7.42069e-05      9.14480     -13.2779 
-8.67660e-05      9.94594      56.5653 
-0.000183634      9.45247      151.156 
2.01987e-05      9.19560      111.433 
5.61604e-05      8.66337      155.444 
-6.68045e-05      10.2208      89.4405 
-3.90929e-05      2.71984     -118.078 
2.01360e-05      6.66368     -153.438 
2.00832e-05      13.5179      47.4589 
-0.000140836      8.98766      57.2639 
0.000153645      8.75898     -93.7971 
-0.000109323      9.25186     -49.7339 
-0.000119712      10.7580      137.411 
1.99621e-05      9.20767      113.557 
-0.000145105      7.53975      156.223 
0.000122416      9.61577     -126.799 
-7.37322e-05      6.39600     -21.2696 
-0.000158271      11.5837     -126.929 
0.000163312      6.68113     -153.513 
-3.77786e-05      14.0300     -44.1917 
-3.39971e-05      10.6611     -63.4836 
1.93793e-05      11.0774      114.992 
-5.28213e-05      10.4472     -159.727 
-0.000174340      10.2206      89.5499 
-0.000115630      9.35598      42.6598 
-3.68080e-05      5.16090     -161.001 
-3.61684e-05      9.51866     -50.4570 
-8.70936e-05      13.0480      130.648 
-0.000140999      10.0972     -82.0289 
0.000126284      10.7601      116.138 
3.60058e-05      11.5713      123.580 
-3.52784e-05      13.7212     -43.6993 
-0.000231752      9.99389     -95.9734 
0.000374148      12.4606     -145.263 
1.84141e-05      9.20160      114.391 
0.000277956      10.3038      14.8449 
-5.27720e-05      10.4924     -64.1167 
5.30190e-05      9.25301      161.606 
1.82632e-05      6.31043     -73.8085 
8.87619e-05      11.0689      114.897 
-1.81292e-05      7.58417     -143.039 
5.10912e-05      8.72126      154.021 
0.000340663      10.1589      46.7569 
6.15391e-05      10.2438     -43.2576 
3.49310e-05      3.92406      58.3372 
0.000260227      8.36106     -18.2642 
-3.32261e-05      2.54054     -123.446 
-5.10508e-05      14.0160     -44.2473 
6.44526e-05      9.20999      114.506 
-1.77658e-05      2.46050     -178.602 
-3.46422e-05      1.78552     -12.9441 
0.000116060      10.6101     -119.223 
-3.36896e-05      11.5826     -45.0709 
-3.35048e-05      9.21517     -49.0480 
-3.28217e-05      5.20303     -157.870 
-4.89728e-05      4.82247     -69.6109 
-6.43887e-05      8.56221      98.8679 
1.73395e-05      8.90653      114.261 
-3.36917e-05      6.46424     -107.650 
-0.000376070      12.3967      125.281 
0.000336913      9.74652      14.8644 
3.26685e-05      10.2291     -43.3354 
3.31589e-05      6.51562      53.2357 
3.33813e-05      8.95011      80.2202 
-3.29791e-05      12.0912     -141.784 
6.15801e-05      5.43965     -138.282 
7.89137e-05      8.36351      1.64524 
-0.000117565      9.22656      24.7309 
6.13964e-05      2.36938      168.306 
6.85720e-05      9.21750      113.393 
-3.19132e-05      10.7280      162.647 
0.000169422      7.70477     -162.790 
-1.64796e-05      9.46172      44.3991 
-9.07290e-05      8.38197      174.251 
-1.64307e-05      11.0898      136.168 
0.000150509      9.27793      161.525 
1.63524e-05      9.38791      50.2730 
-5.99874e-05      6.37712     -21.3357 
4.63199e-05      10.0744      74.3354 
8.13709e-05      10.8404      63.2469 
-7.20817e-05      9.05259     -53.5348 
-1.62755e-05      1.81600     -11.4399 
0.000106172      13.4118     -136.571 
-0.000120140      13.0353      130.583 
4.63636e-05      3.93473      58.0861 
2.96171e-05      6.46319     -1.77641 
7.42815e-05      8.85146     -172.729 
0.000147809      7.59539      67.5521 
7.57206e-05      13.9312     -134.243 
6.14515e-05      11.5601      123.496 
6.25107e-05      3.97906     -72.7440 
-3.08453e-05      9.75800     -155.798 
3.11928e-05      8.86616      64.7666 
-1.59280e-05      10.6883     -63.4349 
1.59172e-05      6.37601     -74.3510 
-8.46518e-05      8.71700      132.956 
-8.66414e-05      6.25683     -129.032 
-3.01889e-05      12.0103     -41.8951 
-1.58138e-05      11.4392      42.3068 
0.000352852      10.9463      20.9845 
3.03380e-05      13.4775      45.3023 
-1.57619e-05      6.48970     -107.767 
-4.54718e-05      4.12300     -22.8316 
-7.37172e-05      9.21234      171.890 
1.56095e-05      6.44234     -1.60189 
-1.55964e-05      2.48076     -178.613 
-4.36048e-05      11.0757      136.098 
0.000169021      13.4265     -136.630 
-5.76397e-05      11.7957      32.3960 
9.21887e-05      8.45990      155.858 
1.54423e-05      8.95345      80.0972 
-2.94217e-05      1.80016     -12.1765 
5.82813e-05      7.51391      25.8818 
-2.97490e-05      9.23926     -49.8262 
-0.000180419      10.1301     -147.250 
-5.65167e-05      10.4836     -64.2163 
-1.52586e-05      14.0015     -44.3052 
2.81023e-05      10.1433      76.4284 
-0.000177163      6.85569     -141.158 
-1.51456e-05      8.38183     -145.896 
2.96391e-05      11.1368     -32.2337 
-5.70223e-05      10.4733     -159.662 
0.000110762      7.76593      31.5230 
-7.92473e-05      11.7895      32.5319 
0.000128107      10.4386     -117.007 
1.50215e-05      13.4918      45.2411 
1.49283e-05      10.3567     -46.7204 
-1.48553e-05      6.40829     -107.247 
9.92690e-05      6.39010     -74.5749 
-9.59485e-05      8.79942      86.2204 
1.47613e-05      9.05597     -126.923 
1.47110e-05      8.73948      154.080 
-2.84152e-05      13.7352     -43.7604 
-6.28650e-05      8.43783      5.43985 
-5.54674e-05      6.76048      129.718 
-8.46144e-05      7.55635      147.322 
-0.000145271      12.7757     -143.274 
-8.18869e-05      9.85575      31.9790 
-4.25320e-05      8.40935     -145.856 
5.21527e-05      8.87481      64.6483 
-4.18573e-05      8.98120      57.0893 
-6.53756e-05      8.50416     -34.3645 
2.84975e-05      3.47484      58.4209 
8.72482e-05      9.81568     -147.735 
2.81878e-05      8.75767     -93.6648 
3.95611e-05      10.2009     -43.3338 
-3.80362e-05      9.86694      54.5682 
-0.000105625      10.9123     -116.801 
-2.27561e-05      11.9400      133.505 
0.000142335      10.5125      20.6082 
0.000129067      12.4717      145.189 
4.02023e-05      9.95712      123.532 
-6.49981e-05      4.13418     -22.4735 
7.24863e-05      9.17127     -175.246 
1.42145e-05      9.19156      114.559 
-0.000126683      12.4964     -126.540 
-5.33499e-05      12.0284      130.550 
9.42731e-05      13.4914      45.3605 
6.84879e-05      8.34384      1.78315 
-0.000248466      9.20961      172.010 
4.11115e-05      6.57845     -165.203 
0.000102602      9.58205     -106.239 
-4.01703e-05      4.14168     -22.7229 
-1.40092e-05      6.55979      96.3047 
0.000210303      11.1196     -32.2894 
1.39746e-05      9.70117      163.471 
0.000237492      11.3435      120.635 
7.59884e-05      4.19515      148.055 
-2.67567e-05      11.2522     -126.545 
-5.24064e-05      13.5201     -131.280 
-2.69516e-05      4.47520      67.6794 
6.29029e-05      9.19968      114.669 
-8.16981e-05      9.25475     -49.9071 
-9.59691e-05      10.1133     -94.6517 
2.69930e-05      3.96265      57.9923 
0.000192911      13.9593     -134.246 
0.000106351      5.49529      31.6065 
7.52776e-05      8.36409      1.77883 
-2.60177e-05      12.8190      131.775 
5.19395e-05      10.5991     -117.048 
4.83267e-05      5.07886     -103.439 
6.10440e-05      3.84874      149.034 
-3.63555e-05      6.40310     -21.4323 
4.90472e-05      7.29624      103.313 
-1.34449e-05      8.42612     -145.933 
-0.000215793      8.44561     -167.974 
3.78505e-05      3.46466      58.6957 
-0.000244889      12.1498      132.066 
-1.32968e-05      8.68891      132.946 
-3.55783e-05      6.53745      96.1477 
-1.32220e-05      13.9873     -44.4784 
0.000198724      9.38628      156.384 
2.59823e-05      7.97960     -14.0689 
-6.83948e-05      1.81997     -12.0420 
-1.31394e-05      6.50799     -100.450 
-2.56516e-05      8.43749     -145.820 
6.69174e-05      11.3609      123.073 
9.51392e-05      10.4729     -104.036 
2.50146e-05      13.7471     -135.590 
-8.93583e-05      6.38424     -21.4988 
2.55021e-05      12.3091     -123.870 
-2.53411e-05      9.89476      54.5442 
-1.29706e-05      6.51424     -107.878 
0.000195233      12.6078      37.0704 
-4.96470e-05      10.4916     -159.699 
2.51139e-05      7.53147      25.8170 
0.000165820      12.9838     -48.8711 
-9.99184e-05      9.51535     -21.7116 
-0.000211824      9.68825     -92.3660 
-9.46739e-05      9.47022      151.215 
-8.46680e-05      6.73098     -105.685 
-1.27344e-05      9.34109      42.7440 
-0.000189007      11.0081      67.9092 
8.31988e-05      10.2461     -87.9854 
-2.35488e-05      9.24428      24.6803 
-0.000231416      13.7493     -43.7042 
-1.26702e-05      11.1236     -30.3446 
3.51686e-05      6.69019     -153.357 
-7.86992e-05      8.97062      57.1939 
-1.26119e-05      11.9266      133.437 
2.42455e-05      10.3715     -46.7971 
-3.61317e-05      10.4748     -64.3161 
-0.000186848      11.8128      32.3433 
-0.000116192      9.87294      31.9168 
-9.66792e-05      6.74755      129.585 
-0.000142889      8.99761     -156.000 
1.25038e-05      10.9131     -20.8276 
0.000106739      4.00034      57.6574 
3.55371e-05      5.82345      91.9716 
-1.24109e-05      7.45636      147.377 
-9.99817e-05      11.1513     -30.3819 
7.91787e-05      7.82547     -107.092 
6.94311e-05      9.29588      49.8000 
-1.23914e-05      8.82759     -4.54887 
0.000101782      7.78321      31.4450 
-3.51088e-05      8.40636      98.2060 
4.66540e-05      6.59731     -165.246 
-3.55517e-05      11.0611      136.025 
3.51211e-05      2.34548      168.690 
-4.66536e-05      8.45426     -145.897 
6.93787e-05      11.7744      147.767 
-2.39627e-05      12.7878     -143.201 
-2.40461e-05      13.2651     -45.0000 
0.000120721      10.9321     -20.7899 
3.47030e-05      9.45971     -173.564 
-4.54063e-05      8.90491      100.350 
6.65636e-05      11.5348     -120.878 
-1.20151e-05      9.96028      54.8121 
6.40717e-05      6.40964     -74.6231 
-0.000108576      11.9640     -52.8793 
5.40098e-05      9.95911     -130.441 
0.000107727      12.6995     -135.000 
-6.79569e-05      10.5866      42.7020 
-9.88267e-05      7.60039     -110.487 
-5.55067e-05      4.14455     -22.1116 
5.62730e-05      7.08383      116.492 
2.27712e-05      11.1260     -32.1455 
-1.17031e-05      8.98265      173.221 
2.25323e-05      6.53653      53.5853 
-2.27542e-05      13.5335     -131.345 
-5.14196e-05      12.0009      130.540 
7.61993e-05      10.5194      20.7077 
-0.000145178      12.6302     -135.835 
4.97733e-05      14.0015     -134.305 
-1.15401e-05      6.24110     -129.149 
-1.14929e-05      10.5617     -159.609 
6.21821e-05      9.38812     -32.4719 
-0.000182365      13.2513     -45.0596 
1.14583e-05      8.97341      80.1194 
-3.31111e-05      8.62473     -154.744 
0.000101475      10.5817     -117.096 
-0.000220311      7.49220      58.0944 
2.23558e-05      10.0150     -43.7067 
-1.13352e-05      10.9739      65.6747 
-3.94178e-05      9.32735      42.6526 
0.000334294      13.7610     -135.647 
0.000166779      10.6724     -123.302 
1.12937e-05      9.28109     -127.732 
0.000164754      14.1292     -134.370 
1.12991e-05      5.26284     -46.5425 
-1.12739e-05      6.64778     -126.559 
-1.12487e-05      8.84942     -4.66923 
0.000112963      11.7710     -136.651 
-0.000130855      10.5883      42.5501 
2.21827e-05      9.56332     -106.272 
-1.12211e-05      4.48293      67.4399 
-3.27989e-05      10.5363     -159.676 
0.000133408      11.5505     -60.7722 
-8.04384e-05      8.56217      132.823 
0.000157497      12.1710     -125.571 
5.30190e-05      14.0302     -134.307 
-0.000217098      10.9820      65.5820 
2.14931e-05      7.44067      126.255 
0.000106609      10.7330     -26.5668 
4.05041e-05      4.18486      148.282 
-1.09883e-05      12.8320      131.840 
0.000156187      9.08009     -44.4643 
2.14449e-05      6.97309      50.2347 
0.000343510      13.4525     -43.7366 
-1.74290e-05      10.5263     -51.8671 
-7.31996e-05      14.0771      136.670 
6.23133e-05      11.8429      123.636 
4.88585e-05      3.44737      58.5208 
-7.85437e-05      6.10350     -108.731 
3.07550e-05      8.47840      155.914 
-2.11286e-05      8.78938      177.392 
5.17707e-05      12.5811     -143.860 
0.000171402      10.7512      116.041 
0.000217842      11.7916      147.820 
1.07709e-05      8.83386     -172.586 
-2.09312e-05      8.46521     -145.787 
-4.80796e-05      13.5317     -131.466 
-0.000120927      10.1714      147.935 
4.08820e-05      4.01121      57.4129 
-1.06965e-05      11.0422      28.3292 
3.10181e-05      8.88351      64.5302 
-7.93424e-05      9.07576     -34.4968 
1.06422e-05      14.1006     -134.368 
-1.06482e-05      4.78597     -7.93064 
1.06464e-05      9.51946      122.821 
-6.11851e-05      13.3389      130.256 
-1.05883e-05      8.89066     -4.77368 
3.12401e-05      10.4680     -103.929 
7.75212e-05      9.74668      177.882 
7.00007e-05      12.5922      37.1239 
3.94747e-05      9.18525      65.8346 
7.75509e-05      13.0119     -48.8651 
-1.05059e-05      11.3423     -27.2889 
5.77931e-05      9.56902     -106.389 
3.07468e-05      7.09289      116.638 
-3.00392e-05      7.86864      76.7748 
0.000377707      9.83395     -78.0256 
2.03931e-05      5.26366     -46.8428 
-5.70179e-05      10.4215     -159.789 
-2.02321e-05      10.5142     -51.9507 
-6.27571e-05      6.65249     -126.321 
4.69339e-05      10.4560     -116.959 
-7.49043e-05      8.96327      173.206 
8.21798e-05      12.9966     -48.8063 
-6.45613e-05      10.4846      49.5659 
0.000308845      10.7511     -26.5186 
1.03452e-05      6.48387     -168.795 
3.08523e-05      9.20816      114.784 
-3.02258e-05      9.12997     -4.64828 
-1.03011e-05      10.0944     -82.1428 
-1.02841e-05      9.87119     -97.8030 
-0.000345259      8.30090      117.244 
-1.02769e-05      10.5807     -159.648 
-3.02106e-05      14.1560      134.942 
-3.80769e-05      11.0251      28.3774 
-4.83087e-05      9.34226      42.5684 
-5.47688e-05      4.46492      67.3438 
5.76891e-05      6.72312     -150.998 
7.77867e-05      4.83225      53.4166 
1.02206e-05      8.81642     -172.439 
-0.000452166      11.5353      29.4966 
-3.92124e-05      8.80078      86.0888 
7.70019e-05      4.03251      85.4533 
-0.000118533      8.69528     -152.314 
-1.01489e-05      10.3148      120.145 
0.000102354      8.90781      73.0289 
0.000167756      12.8194      39.9992 
-5.64805e-05      9.26103     -86.1625 
1.00722e-05      11.8616      59.4994 
-1.97913e-05      8.46751     -141.426 
1.00688e-05      10.1456      46.8372 
3.93417e-05      10.4395     -104.648 
1.00598e-05      9.49249      122.786 
6.94139e-05      9.30897      49.7048 
6.67087e-05      12.7131      41.2381 
-3.92241e-05      12.7575      127.803 
-0.000444872      14.0637      136.727 
3.87174e-05      7.71079     -162.646 
-6.52199e-05      11.3243     -27.3359 
0.000107418      11.8597      123.581 
-9.98237e-06      6.84051     -141.056 
-9.99092e-06      9.44600      59.0339 
-7.27671e-05      9.93374     -93.0007 
-3.78982e-05      8.65801      148.218 
2.80905e-05      10.5266      20.8108 
1.93426e-05      8.73952     -93.8056 
-8.52124e-05      9.81728     -107.550 
-2.77884e-05      2.75221     -37.6229 
9.87757e-06      6.52452      53.7284 
-9.84552e-06      1.89253     -15.9485 
-9.85316e-06      11.5919     -42.6941 
-0.000146062      11.8066      32.4790 
-9.80534e-06      10.4067     -157.872 
1.93429e-05      7.11976      116.705 
-8.48816e-05      10.6634     -67.6183 
1.91389e-05      11.2311      50.1283 
0.000142570      12.2660      145.430 
-0.000108640      9.99180     -95.8579 
-9.78826e-06      8.90857      100.478 
-4.67244e-05      12.7003     -143.130 
-9.74244e-06      10.8029     -161.097 
-0.000233344      14.1422      134.886 
1.93923e-05      11.1088     -32.2011 
0.000121392      11.3603      120.585 
3.72481e-05      5.77783     -11.5828 
0.000144344      11.4028      140.195 
-0.000240737      13.8503      46.5784 
-5.49698e-05      1.83979     -11.9103 
1.93567e-05      8.99878      124.677 
-9.70446e-06      9.56747     -92.2744 
-1.91227e-05      9.27026     -49.9878 
-3.70924e-05      11.9919     -52.8634 
-4.66381e-05      9.15017     -4.63799 
2.83106e-05      10.4561     -73.7852 
-0.000129469      10.0508      12.2940 
-9.65998e-06      10.1787      123.785 
6.47026e-05      9.76538      14.8350 
-9.62420e-06      10.1472     -147.312 
-2.79867e-05      8.48135     -145.861 
-1.89182e-05      2.15059     -18.4286 
-3.69244e-05      6.76449      142.690 
-6.39763e-05      9.56671     -92.1577 
-1.88105e-05      8.95360      57.1237 
-5.40673e-05      9.35849      40.8415 
-1.88438e-05      8.32224     -84.2092 
9.53363e-06      10.5455      20.7717 
4.52859e-05      3.22814      101.804 
-1.81406e-05      8.64143      148.150 
8.14563e-05      11.7939      145.501 
-2.69901e-05      10.0931     -94.6611 
0.000131513      12.4606      145.263 
-1.86910e-05      10.9303     -116.753 
0.000130586      9.29863      122.527 
7.19581e-05      10.4210      15.1310 
-9.47821e-06      10.7487      143.854 
6.25760e-05      10.4618     -73.6786 
8.11746e-05      7.25362      52.0548 
-6.33497e-05      14.0088     -46.9666 
1.86754e-05      12.9303     -138.072 
-0.000199679      10.1956      123.722 
1.82779e-05      5.82279      91.7724 
-0.000243155      10.8279     -161.029 
3.68986e-05      10.4446     -104.755 
-0.000143223      12.4494     -46.5631 
8.10498e-05      9.01032      124.783 
-1.85838e-05      2.16911     -18.2657 
-2.76015e-05      8.48336     -141.511 
-1.86241e-05      12.7700      127.875 
5.38187e-05      11.5604     -60.6846 
8.85426e-05      12.6857     -134.938 
-4.55773e-05      12.7565      134.621 
0.000183045      10.7352      20.7304 
9.36475e-06      7.31973      103.427 
9.38054e-06      6.70831     -153.435 
-9.33941e-06      12.4360     -46.6283 
2.74360e-05      7.40992      125.662 
-0.000192248      12.6535      137.307 
5.39690e-05      11.7858     -136.718 
-4.07450e-05      11.8478     -125.381 
1.84708e-05      3.63256     -120.803 
3.65930e-05      5.26853     -48.0771 
-1.84100e-05      11.9758     -52.8048 
-9.29975e-06      8.83973     -22.6206 
9.30441e-06      10.8673     -153.672 
-9.72122e-05      6.13576      21.2081 
0.000178257      8.73820     -93.6730 
-8.69244e-05      10.4510      124.238 
9.21109e-06      11.8514      59.5837 
9.22450e-06      4.02830      57.5681 
0.000131038      9.96755      71.9988 
9.18782e-06      12.8128      38.4083 
0.000138420      9.40416      156.432 
3.56908e-05      4.82020      53.6100 
0.000105482      10.4996      66.6578 
4.46961e-05      10.8768     -153.811 
0.000105929      12.3237     -139.279 
3.57237e-05      7.98209      132.768 
1.81966e-05      10.5548     -117.051 
-0.000233575      9.70849     -92.3611 
0.000284862      13.4111     -136.449 
-9.14071e-06      11.8754     -141.702 
-3.53809e-05      9.09247     -34.4245 
3.54533e-05      3.38866     -59.4997 
-6.88159e-05      6.73514      129.457 
-4.43635e-05      6.25906     -125.115 
-4.45633e-05      2.51871      79.9455 
2.71214e-05      9.31572      122.460 
3.55194e-05      8.06223      13.4827 
-2.65285e-05      8.53353      132.816 
-1.81685e-05      13.9788     -43.2621 
-7.83239e-05      10.3214     -68.7555 
1.80733e-05      4.80391      53.4666 
3.54308e-05      7.34936      54.1937 
4.42279e-05      8.96654     -135.542 
-1.79355e-05      8.82173     -22.6694 
9.02533e-06      11.2467      50.1944 
-2.68475e-05      7.72539      74.3803 
5.62957e-05      6.74084     -151.081 
-9.02547e-06      4.47276      67.1043 
-1.78727e-05      8.93722      57.0558 
-5.23644e-05      13.9922     -43.3202 
-8.99541e-06      11.5523      29.4490 
5.21767e-05      12.5648     -143.806 
1.78603e-05      12.5371      50.1136 
-0.000206726      11.6540      28.7203 
2.65289e-05      10.4649     -117.054 
2.65225e-05      9.50581     -37.9075 
6.19282e-05      7.97119      10.4076 
-1.77911e-05      10.5687     -16.3762 
-5.22689e-05      8.82963      76.9098 
-4.34912e-05      12.1914     -51.7962 
-2.48314e-05      3.23231      126.447 
5.50816e-05      3.64997     -120.641 
-0.000171571      12.3690      125.257 
1.76601e-05      11.3502      122.990 
-8.90746e-06      6.85662      147.146 
1.77815e-05      13.9734     -134.306 
-4.34105e-05      10.6744     -67.7603 
0.000129341      11.3702      120.669 
4.34115e-05      10.5729     -117.002 
-1.76968e-05      11.8851      125.134 
-6.93430e-05      12.7423      134.556 
6.04218e-05      12.7399     -53.4905 
2.62607e-05      11.5301     -62.6345 
-8.84892e-06      10.1527     -147.468 
-5.25156e-05      13.9780     -43.3751 
4.30989e-05      11.3567     -135.642 
8.84473e-06      5.58171     -10.9504 
-0.000103155      8.67801     -152.254 
-6.01443e-05      11.8595     -125.461 
-8.83554e-06      10.2952     -68.8198 
0.000120315      11.5283      51.4800 
1.72843e-05      10.8188     -121.546 
5.97581e-05      12.8281      38.3541 
2.58836e-05      9.15183     -94.7644 
-0.000129322      13.7926     -43.6487 
-6.02746e-05      11.0848     -117.859 
-1.75763e-05      10.2626     -68.9875 
-8.79876e-06      8.87122     -4.78417 
4.31449e-05      10.5949     -104.877 
-1.73380e-05      8.25569     -153.372 
-9.42308e-05      8.71276      20.1408 
8.77154e-06      13.4447      138.437 
-1.74802e-05      12.3625      43.8195 
5.14689e-05      10.2454     -88.0987 
-5.96410e-05      2.17554     -18.7724 
-1.73499e-05      6.87955      147.463 
-0.000139722      8.66100     -23.5467 
-8.57111e-05      10.5882     -16.3453 
-9.43304e-05      11.8968      125.214 
-0.000179738      10.2365     -69.0527 
0.000153558      13.4384     -43.7941 
-0.000170991      11.3323      153.481 
-8.52981e-05      12.5117     -129.747 
-1.72385e-05      5.68371     -120.445 
-8.70700e-06      12.4104      55.4394 
-0.000187910      10.3406      105.596 
-0.000145150      9.54647     -92.1623 
-8.69065e-06      9.96858     -55.5443 
8.70989e-06      10.1748     -100.646 
8.67645e-06      11.7603      142.743 
2.58519e-05      4.79232      53.6540 
7.67888e-05      12.2025     -137.525 
-8.65871e-06      11.9878      130.466 
-0.000102557      11.7840      32.6660 
5.10182e-05      10.8586     -153.764 
5.97990e-05      5.56407     -7.22853 
-1.71875e-05      7.73087      74.2357 
-0.000153339      12.4507     -46.6924 
1.72239e-05      11.8717      143.150 
4.20989e-05      4.03101      85.7297 
-8.64974e-06      10.6037      65.1252 
2.57454e-05      4.58966      173.494 
-4.61958e-05      3.16787      129.618 
-0.000153416      14.0061     -43.3805 
-9.35129e-05      10.0914     -94.5464 
-1.72328e-05      12.3937      55.3862 
-6.80626e-05      2.52233      79.4924 
4.25100e-05      13.6329      138.687 
-0.000119133      11.6609     -55.4100 
8.60626e-06      3.59532     -50.6492 
-2.56315e-05      10.5116     -161.702 
-7.39495e-05      12.0560     -126.906 
5.96050e-05      10.6200     -119.318 
8.59374e-06      9.44686     -60.7208 
-0.000102043      5.98805      42.4302 
3.86968e-05      8.95237     -135.635 
-3.41081e-05      14.0226     -46.9060 
4.25443e-05      10.4021      15.1591 
-2.55326e-05      8.92022      56.9850 
-8.49125e-05      12.8370      138.538 
8.58205e-06      11.8043      142.781 
4.26036e-05      11.5208     -62.7240 
-8.59806e-06      8.44156     -168.104 
-9.57657e-05      6.12873      21.0380 
0.000127472      10.7725     -70.5894 
1.71344e-05      3.07027      103.945 
-0.000160501      6.90292      147.785 
-8.47934e-05      6.24743     -124.963 
-8.49154e-05      12.3822      55.4634 
-0.000135854      13.8496      46.4643 
8.54037e-06      12.6857     -134.808 
8.55008e-06      8.08194      13.4492 
3.39178e-05      11.8204      142.841 
-5.09133e-05      10.2210      89.3270 
1.70878e-05      10.5095      66.8014 
-0.000186648      14.1279      134.828 
-1.69908e-05      10.2472     -65.4356 
5.10048e-05      8.05794      174.448 
-2.55016e-05      11.9746      130.392 
8.52368e-06      12.3385      35.6997 
3.40503e-05      11.8677      143.013 
-2.55489e-05      12.4690     -51.5141 
7.91880e-05      11.4916     -51.0749 
-1.69828e-05      9.20682      172.135 
-4.23941e-05      9.87051     -65.2020 
5.92972e-05      12.3390     -139.341 
-1.69409e-05      12.1648      132.002 
8.49896e-06      9.18981     -175.382 
-8.49300e-06      8.22548      74.3447 
1.69450e-05      8.54771     -50.1249 
2.47345e-05      4.80866      53.7971 
8.51751e-06      9.43697     -60.8281 
-1.69596e-05      8.82523      77.0331 
-3.39362e-05      3.15499      129.334 
4.23190e-05      11.3112      122.874 
-8.50364e-06      10.4405     -159.828 
7.03292e-05      6.61179     -165.461 
-1.69551e-05      10.2295     -69.1547 
-8.50155e-06      1.34034      179.134 
6.77613e-05      9.87312      5.92855 
-8.48509e-06      1.85888     -11.7862 
-2.53932e-05      14.2012     -43.9724 
-3.38149e-05      10.9324     -29.2376 
-3.38617e-05      10.2788     -76.1545 
-4.23675e-05      12.7281      134.491 
2.54165e-05      9.02146      124.885 
6.04739e-05      8.96686     -135.726 
-4.23391e-05      10.2293      80.8873 
1.69425e-05      7.28100      52.0282 
-3.38789e-05      3.86239     -30.1467 
3.39328e-05      10.5999     -104.979 
-4.23460e-05      11.0943     -117.952 
3.38623e-05      10.9084     -110.164 
2.53815e-05      10.4915      66.7594 
-3.38538e-05      10.9903      65.4858 
-8.46539e-06      10.1885      147.996 
8.45010e-06      12.0725      141.592 
2.53690e-05      9.03794     -77.9959 
-5.23327e-05      5.21133     -140.141 
2.53888e-05      3.06563      103.591 
2.53582e-05      9.52566     -175.785 
8.47952e-06      9.94519      70.2525 
8.46860e-06      11.8839      143.072 
-5.92312e-05      11.7611      32.8505 
-2.53705e-05      10.3352      105.488 
-2.53652e-05      12.4532     -51.4561 
3.38794e-05      9.96131      72.1096 
-1.69169e-05      8.27381     -153.435 
8.46644e-06      13.7752     -135.587 
-3.38671e-05      9.66181      1.18821 
-8.44798e-06      12.8860      49.7830 
8.49063e-06      13.6195      138.751 
-1.69029e-05      9.54572     -92.0407 
2.53766e-05      8.71798     -93.6815 
2.53773e-05      11.3101     -51.2458 
-1.69037e-05      10.3078     -79.0385 
8.44356e-06      11.3516      150.091 
-3.38739e-05      13.3448      47.1260 
-1.69455e-05      12.8186      141.269 
-3.38713e-05      14.0498      136.788 
-8.45898e-06      1.87872     -11.6600 
-1.68893e-05      11.9620      130.321 
1.69163e-05      13.9176     -134.185 
5.30368e-05      8.56327     -50.2118 
1.69256e-05      10.6744     -106.773 
1.69177e-05      11.5119     -62.8103 
1.69547e-05      10.2448     -88.2119 
-1.69285e-05      10.2497     -76.3432 
-1.69254e-05      10.5827     -16.2440 
-8.44782e-06      13.3157      130.003 
-2.53799e-05      14.0059     -43.4956 
8.45916e-06      12.7519     -53.4174 
8.46846e-06      9.22496      158.107 
-8.47968e-06      8.67958     -23.4932 
8.43553e-06      4.79672      53.9924 
8.43021e-06      8.32143      137.141 
-8.47240e-06      11.9393      133.643 
-8.45975e-06      5.97366      42.5564 
8.46973e-06      9.91929      70.3231 
-8.45719e-06      10.9295     -37.9392 
8.47729e-06      11.8521      142.957 
-2.48050e-05      10.2325      80.7753 
8.42675e-06      9.41785     -78.2352 
-1.69206e-05      2.53866      80.0254 
8.47424e-06      11.3876      120.617 
-1.69305e-05      11.6891     -55.3846 
-8.47686e-06      14.0226      136.906 
-1.70012e-05      13.7780     -43.7069 
8.48058e-06      12.3475      141.777 
-8.44025e-06      10.5313     -113.739 
-8.46681e-06      6.64051     -126.180 
-8.46683e-06      13.8361      46.5229 
-8.46640e-06      4.99477      85.6402 
2.63014e-05      4.44180      51.5851 
8.47214e-06      9.17291     -94.8757 
-8.48028e-06      11.8947      130.089 
0.000184290      14.1591      136.087 
0.000157362      13.7748     -47.6472 
0.000103867      10.0299      74.3843 
-5.34461e-05      10.7408     -28.7101 
-7.21980e-05      10.6221      65.1711 
5.53023e-05      11.8109      30.0804 
2.89008e-05      8.10783     -133.102 
2.86281e-05      11.0905     -157.412 
5.86515e-05      8.11151      13.1106 
-2.76408e-05      10.7315     -28.6188 
8.96819e-05      8.89191      64.4167 
-4.36944e-05      10.5427     -28.5607 
-0.000123687      10.6668     -67.8610 
-5.92603e-05      11.8754      51.7021 
2.36345e-05      9.20305      65.8843 
-3.50297e-05      8.02432     -102.964 
-4.33721e-05      10.2454      81.0165 
6.41362e-05      10.1164      172.961 
1.79320e-05      8.12668      12.9391 
-1.78446e-05      8.21484      74.6118 
-6.72432e-05      8.49598     -141.404 
-4.04595e-05      9.59793     -21.0012 
4.19757e-05      8.12168     -133.207 
7.09730e-05      10.9606      127.288 
-0.000196569      10.4665      45.9266 
5.77984e-05      9.83596     -85.1028 
4.72283e-05      11.0729      26.6119 
8.66266e-05      12.9482      47.0643 
-9.48584e-05      9.27052     -145.283 
5.95928e-05      9.86281     -146.246 
-6.34246e-05      8.33113     -69.0429 
3.34812e-05      5.18861     -93.3163 
7.08250e-05      14.1445      136.030 
-5.97965e-05      10.5308      17.9198 
-3.64125e-05      8.07206     -143.159 
4.69857e-05      10.1358      172.975 
-1.68766e-05      8.59230      30.8050 
3.29568e-05      11.5074     -51.1383 
3.10132e-05      11.0828     -157.508 
5.47996e-05      11.0860     -32.3992 
-0.000193732      12.4634     -46.4954 
-3.25758e-05      10.0465      12.1811 
9.83287e-05      11.8872      123.611 
6.51907e-05      7.98749      10.2384 
-1.62884e-05      5.70119     -120.342 
1.65356e-05      9.85097      5.82785 
3.98773e-05      9.01985    -0.381331 
-0.000106928      11.8319     -125.436 
-5.58156e-05      5.73363      137.684 
6.19170e-05      7.92056     -179.566 
2.37515e-05      14.2131      45.3979 
5.48030e-05      4.71501     -79.7416 
1.66545e-05      12.0335     -49.7196 
6.41723e-05      10.5805     -136.072 
-5.26932e-05      8.54841      132.723 
2.41532e-05      8.79147      18.0236 
5.25173e-05      7.02714     -49.9641 
-1.59838e-05      3.46510      135.702 
8.30518e-06      11.0969     -32.4875 
-8.16901e-05      11.9704     -146.654 
7.59616e-05      10.2684      101.572 
-8.27506e-06      9.66394     -68.0020 
6.27544e-05      4.60755      173.773 
3.20601e-05      11.9662      46.0824 
-8.25942e-06      10.3980     -65.2104 
-6.95949e-05      8.28289      117.308 
-0.000107897      12.5251     -137.265 
-5.79110e-05      8.07656     -100.557 
-0.000158060      7.88965     -85.0567 
3.92285e-05      9.82807     -170.041 
2.35658e-05      9.09402     -44.3782 
5.33674e-05      13.4660     -43.7966 
8.11142e-06      10.8698     -128.725 
-8.10219e-06      8.04845     -103.067 
-2.28567e-05      3.13935      129.569 
-8.06836e-06      6.71148     -105.732 
7.91624e-05      9.86637     -77.7089 
1.58371e-05      9.04027    -0.508881 
-1.59860e-05      8.80303     -22.7202 
-0.000141508      9.99538      66.4083 
4.61063e-05      12.0466     -49.6461 
9.23743e-05      9.57476     -106.505 
6.36861e-05      10.6172     -116.998 
-1.57612e-05      6.85930     -141.391 
2.32764e-05      9.21667      114.898 
0.000143401      12.1941     -125.723 
1.44233e-05      8.99052      16.9452 
5.81355e-05      12.7161      136.083 
0.000134398      11.9093      56.2298 
0.000108287      7.35381      54.4059 
4.89718e-05      7.01413     -50.0908 
-2.95783e-05      10.2057      148.056 
-1.54709e-05      13.0480     -139.352 
0.000104384      10.9386     -31.1613 
4.96636e-05      9.85297      5.94071 
9.19428e-05      9.84597     -146.180 
2.28655e-05      9.32386      49.7823 
-1.50589e-05      12.5696      39.0589 
7.75951e-06      6.97062     -165.887 
4.41552e-05      9.26456      138.326 
2.96540e-05      9.37828     -176.454 
1.49068e-05      9.02271      16.7485 
-2.74649e-05      12.4844     -126.465 
-7.68756e-06      6.23584     -124.811 
-7.19836e-05      8.77653     -22.6493 
-1.47349e-05      8.04406     -102.932 
-5.53104e-05      7.71876     -63.3677 
-2.85352e-05      9.97520      32.6404 
4.78867e-05      11.8710      123.663 
-4.22190e-05      8.40928      98.3427 
3.58995e-05      5.18748     -93.0929 
-7.11849e-05      6.51155     -100.618 
6.28861e-05      10.5773     -47.8351 
0.000166617      13.8035     -47.6417 
-6.93016e-05      8.65293     -23.4237 
7.55147e-06      4.45442      51.3809 
-0.000104248      8.22024      74.4756 
-7.53440e-06      10.2357      80.6675 
-1.47476e-05      9.52179     -148.749 
-7.61931e-05      13.0634     -139.410 
-7.00596e-05      9.77863     -98.9441 
-7.46485e-06      7.95921      41.9467 
-2.05055e-05      11.2763      52.7831 
3.52835e-05      4.78034      53.8496 
7.44293e-06      6.63140     -165.505 
-3.52304e-05      1.98067      88.8495 
-0.000142670      10.9634      136.403 
7.45271e-06      9.82472     -170.154 
7.42279e-06      11.9803      46.0126 
-3.55321e-05      10.1844      123.627 
7.39375e-06      9.02001    -0.510024 
6.90493e-05      9.35806     -176.446 
-4.70303e-05      8.01980     -102.823 
-6.09710e-05      9.11412      63.5447 
8.98931e-05      10.2725      101.683 
-2.06570e-05      10.3951      146.614 
1.39306e-05      4.20210      148.427 
-8.93546e-05      12.8729      49.8519 
2.07514e-05      8.98931      80.2633 
-4.18716e-05      5.56262      12.0375 
6.86654e-05      9.84468     -170.174 
-5.50427e-05      4.25462      172.705 
5.49058e-05      9.58305      50.9303 
3.43330e-05      5.14030    -0.443302 
-1.42609e-05      8.87124      57.2415 
1.40798e-05      10.1630      76.4552 
7.21859e-06      9.12143      140.518 
-4.79436e-05      9.09666      63.4899 
4.80456e-05      12.9599      138.190 
-3.51910e-05      10.8804      66.2618 
-4.12406e-05      11.2924      52.8453 
4.09369e-05      9.56076     -95.2824 
-4.11281e-05      7.48582      132.941 
8.81466e-05      11.1450      65.7336 
1.40734e-05      9.51781     -38.0002 
-3.35945e-05      5.22433     -139.970 
4.10820e-05      13.4774      47.6469 
-4.12965e-05      8.32417     -69.1683 
5.41989e-05      10.9322      127.268 
-4.75669e-05      10.6429      40.2757 
7.12512e-06      3.06093      103.222 
-3.43872e-05      8.89821      57.2038 
-7.12691e-06      10.5605     -28.5081 
2.75892e-05      10.9656      129.672 
-2.75597e-05      2.50490      19.5857 
-2.74484e-05      5.74862      137.820 
-1.39382e-05      10.9563     -68.0237 
-6.76788e-05      12.6841     -143.075 
-7.08505e-06      7.25794      114.591 
1.36076e-05      9.00034    -0.382157 
1.40126e-05      12.0438     -49.5129 
7.44927e-05      11.1477     -31.3500 
8.71039e-05      6.38390      14.5132 
-2.70113e-05      13.4118     -133.429 
6.72981e-05      10.8135      63.2909 
2.70823e-05      12.9344      47.1300 
-7.02129e-06      10.7231     -28.7621 
2.68911e-05      7.81716      31.2929 
-4.70752e-05      13.2902      129.871 
-2.03830e-05      13.5649     -136.015 
6.97003e-06      11.7790     -128.175 
1.37843e-05      9.11522      96.3001 
-2.66897e-05      11.2856     -45.2882 
4.05115e-05      11.5568     -141.464 
6.94028e-06      8.36009      179.861 
-6.08382e-05      3.22031      126.157 
-2.02255e-05      10.7328     -28.8570 
0.000113585      12.5406     -125.261 
4.69545e-05      14.3682     -45.1121 
6.86354e-06      6.20871      117.637 
-6.87134e-06      11.7400     -34.8003 
9.32661e-05      9.24944      138.243 
-5.30639e-05      13.3845      43.3053 
-1.34140e-05      8.82181      57.4982 
1.34453e-05      13.4172      138.444 
1.99461e-05     0.929974     -18.8297 
-3.98337e-05      4.25209      172.975 
-6.79933e-06      10.9726      65.4435 
-2.67352e-05      5.78720      172.655 
-1.34889e-05      10.7045      69.0914 
-2.00381e-05      8.36378      16.9636 
1.99805e-05      9.00331      16.7857 
-5.44048e-05      10.5494     -161.770 
-3.98082e-05      12.2828     -136.978 
5.95949e-05      12.7380     -129.135 
3.97444e-05      4.85701      121.532 
-0.000127087      12.1377      131.860 
1.34547e-05      4.00422     -72.5633 
2.64594e-05      12.3225     -50.0023 
-1.32652e-05      7.66003      40.5544 
6.74491e-06      12.1901      42.2756 
-6.73695e-06      13.0402     -134.254 
1.98000e-05      10.1386      76.5397 
-3.30353e-05      13.2311     -140.029 
6.15948e-05      10.5904     -47.7569 
-6.70248e-06      10.3090      165.046 
-6.70922e-06      6.87514     -141.496 
-5.28532e-05      10.9810      65.3474 
2.62615e-05      7.38026     -22.4635 
-6.70963e-06      9.61615     -20.9595 
-2.63391e-05      8.75102     -22.5806 
-2.64428e-05      11.9805      144.717 
1.98649e-05      4.02956      86.0170 
1.32420e-05      11.0555      26.6572 
1.97065e-05      12.1915      42.1411 
-6.65054e-06      3.45098      135.943 
-6.64799e-06      10.3721     -65.2631 
-3.29085e-05      9.85154      10.0542 
-6.63552e-06      8.08829     -143.245 
-1.97785e-05      6.52791     -100.417 
-1.32348e-05      2.48582      19.7422 
1.31699e-05      12.5990      49.6356 
-1.31837e-05      11.2108      47.4603 
-1.31274e-05      3.33210      7.93485 
-6.61448e-06      13.3698      43.3649 
-1.31278e-05      9.46338      59.0970 
6.58601e-06      9.74452     -131.838 
1.31498e-05      10.5306     -55.1311 
2.00528e-05      9.09508      96.3141 
-6.58065e-06      5.32338     -61.9864 
6.58724e-06      12.1992     -125.593 
1.31105e-05      14.3687     -45.0000 
-1.31017e-05      10.6973      69.1928 
1.30703e-05      8.71438     -43.5137 
6.55055e-06      9.79077      146.666 
6.56026e-06      8.33054     -135.682 
1.30342e-05      9.97330     -26.8215 
-6.54899e-06      7.05704      44.8880 
-6.53466e-06      6.73609      142.723 
-6.51876e-06      10.6864      47.3534 
-1.30249e-05      10.8785      115.482 
-6.51245e-06      8.64312     -23.5983 
6.53038e-06      4.69582     -79.6992 
-6.51594e-06      13.5446     -131.528 
-6.48250e-06      5.78983      172.456 
-6.47669e-06      8.90920      57.0943 
-6.47398e-06      13.5503     -135.956 
-6.47476e-06      10.3228      69.3518 
-7.71764e-05      11.0237      50.4466 
2.08221e-05      12.9705     -48.9385 
-7.06203e-06      6.72228      129.324 
-7.32761e-05      6.53147     -100.586 
-5.42466e-05      10.2323     -51.4281 
2.66778e-05      6.04106      1.13879 
1.36329e-05      2.97651     -141.818 
4.01634e-05      10.1598      46.9124 
-6.90633e-06      10.7137     -28.6707 
4.64844e-05      7.30600      51.7777 
-2.65347e-05      10.2234     -51.6732 
-5.32215e-05      8.81452      76.7517 
-1.32960e-05      9.61692      95.0091 
2.64945e-05      10.6836     -123.393 
-1.32475e-05      9.99226      32.5778 
2.00352e-05      9.09288      96.1872 
6.67819e-06      9.32133     -127.855 
-3.29938e-05      10.6862     -28.6275 
-6.67043e-06      7.23178      114.509 
1.33084e-05      11.8435     -32.9389 
-2.66091e-05      8.62971     -169.316 
2.00064e-05      9.97366     -136.543 
-1.31021e-05      12.4389      131.611 
1.98266e-05      12.5864      49.7033 
-6.59160e-06      1.17727     -170.201 
-6.57403e-06      10.5302     -52.0187 
-1.30776e-05      3.46557      136.176 
-1.30295e-05      9.90018      179.535 
6.56947e-06      12.0225      45.9433 
-2.62774e-05      11.0834     -25.5484 
2.62418e-05      14.1989      45.4561 
-2.62297e-05      8.44413     -160.923 
-1.96124e-05      11.8202     -125.356 
6.55932e-06      10.8226      63.4349 
-6.56121e-06      10.7040     -28.5755 
-3.28819e-05      12.6679     -143.020 
-1.30392e-05      11.9649     -146.524 
-6.53896e-06      6.40310      68.5677 
6.52810e-06      11.8081      147.870 
-1.30371e-05      13.7100      43.2857 
-1.30104e-05      10.3484      153.483 
1.29991e-05      10.8056     -56.3993 
-2.00223e-05      8.20226     -148.052 
-2.67566e-05      8.50484     -151.022 
2.01212e-05      8.56071     -50.0208 
3.96114e-05      9.37705     -176.578 
1.96638e-05      10.8571     -128.642 
-2.61730e-05      8.77666      86.4707 
-2.62807e-05      6.90124     -1.16507 
-1.31150e-05      8.36255     -84.2372 
-6.66424e-06      6.70946      129.190 
-1.32442e-05      11.4645      57.9743 
-6.58092e-06      3.47963      135.935 
1.31296e-05      12.0084      46.0127 
1.30170e-05      10.7065     -26.5166 
6.51280e-06      5.27015     -48.3881 
-6.72524e-06      9.16961      94.6281 
6.60742e-06      8.66084     -28.1037 
6.54305e-06      5.83277      6.10006 
-6.54331e-06      1.98118      88.2636 
-6.54228e-06      7.13441     -97.0869 
6.51067e-06      6.12487     -177.753 
-6.49827e-06      10.3898     -65.3081 
6.49533e-06      9.84803     -170.062 
-6.52506e-06      9.91370      31.6376 
-6.47786e-06      10.4189     -12.3005 
! Tentative model.
! Flux (Jy) Radius (mas)  Theta (deg)  Major FWHM (mas)  Axial ratio   Phi (deg) T \
! Freq (Hz)     SpecIndex
-6.89250e-06      11.0241      50.4473 
