! Center RA: 12 21 31.69052,  Dec: +28 13 58.50011 (2000.0)
! Established model.
! Flux (Jy) Radius (mas)  Theta (deg)  Major FWHM (mas)  Axial ratio   Phi (deg) T \
! Freq (Hz)     SpecIndex
 0.0389313     0.120934     -82.8750 
0.00540383     0.106066     -81.8699 
0.00346326    0.0912414     -80.5377 
0.00221433    0.0807775     -68.1986 
0.00401872    0.0474342     -71.5651 
0.000291256    0.0618466     -75.9638 
0.000288411    0.0900000     -90.0000 
0.00137318     0.106066     -98.1301 
0.00162514    0.0424264     -45.0000 
0.00245748     0.120934     -97.1250 
0.00173294    0.0335410     -26.5651 
0.00189152     0.210000      90.0000 
0.00115136    0.0474342     -18.4349 
0.00493807     0.210535      94.0856 
0.00229162     0.135831     -96.3402 
0.00327662    0.0300000      0.00000 
0.00179535     0.135000     -90.0000 
0.000190770    0.0540833      146.310 
0.00123905    0.0670820      153.435 
0.00103848    0.0450000      0.00000 
0.00114917     0.225499      93.8141 
0.00474467     0.150000     -90.0000 
0.000163974    0.0750000      143.130 
0.000321955    0.0600000      0.00000 
0.000161205    0.0807775      158.199 
0.00106211    0.0874643      149.036 
0.00171189    0.0764853     -11.3099 
0.00120412     0.226991      97.5946 
0.00635761     0.823772      123.111 
0.000143691     0.258940      100.008 
0.000142304     0.212132      98.1301 
0.000282048    0.0960469      141.340 
0.000554947     0.276586      102.529 
0.000231234     0.182483      99.4623 
0.000137583    0.0960469      128.660 
0.00149291     0.134164      116.565 
0.000400818     0.291247      101.889 
0.000387127     0.135831     -173.660 
0.00105212     0.156605      106.699 
0.00100580     0.294703      104.744 
0.00240405    0.0912414     -9.46232 
0.000888395     0.152971     -168.690 
0.000923529     0.309233      104.036 
0.00104809     0.313209      106.699 
0.000214966     0.106066      135.000 
0.00223559     0.165680     -84.8056 
0.000298216     0.147733      113.962 
0.00136072     0.171026      105.255 
0.00213770     0.836376      122.550 
0.000294316     0.117154      129.806 
0.00162181     0.327605      105.945 
0.000884260     0.156605     -163.301 
0.000365650      2.05916      104.340 
0.000368373      2.07743      104.638 
0.000433380     0.129035      125.538 
0.000940489     0.109202     -15.9454 
9.06460e-05      2.06292      104.744 
0.000673775      2.15353      108.687 
0.000167063      2.07369      104.237 
0.000161026      2.07005      103.835 
0.000239809     0.342053      105.255 
! Tentative model.
! Flux (Jy) Radius (mas)  Theta (deg)  Major FWHM (mas)  Axial ratio   Phi (deg) T \
! Freq (Hz)     SpecIndex
0.000396220    0.0960469      128.660 
0.000250520     0.210535      85.9144 
0.000507248     0.226991      82.4054 
0.000255646    0.0848528      135.000 
0.00176368      2.13954      107.546 
0.000125089    0.0750000      143.130 
0.000482858     0.100623     -116.565 
0.000471532     0.100623      116.565 
0.000239113     0.225499      86.1859 
0.000120704    0.0874643      120.964 
0.000566167     0.114237     -113.199 
0.000227801     0.241868      82.8750 
0.00149777     0.857103      122.856 
0.000330226     0.114237      113.199 
0.000111019     0.256759      83.2902 
0.000956483     0.152971      101.310 
0.000835165     0.123693     -104.036 
0.000215333     0.271662      83.6598 
0.000315508      2.15838      107.805 
0.000313133     0.128160      110.556 
0.000105284     0.286575      83.9910 
0.000288664     0.300375      87.1376 
0.000102563      2.18697      107.565 
0.000101249      2.20127      107.447 
0.000417668     0.315000      90.0000 
0.000285722    0.0540833      146.310 
0.000198438      2.21116      106.960 
9.98701e-05     0.803026      122.800 
0.000195280      2.12524      107.668 
0.000196977     0.346302      94.9697 
9.89379e-05     0.823772      123.111 
0.00120505     0.135831     -96.3402 
0.000385145     0.790459      123.389 
0.000286438     0.877852      123.147 
0.000561396      2.22552      106.847 
9.68470e-05     0.362802      97.1250 
9.57775e-05     0.379770      99.0903 
0.000463065     0.397146      100.886 
9.34227e-05      2.10642      107.403 
0.000364897     0.769691      123.071 
0.000272732     0.890449      122.619 
0.000351499      2.11095      107.791 
0.000654378     0.180624      94.7636 
0.000177894     0.414879      102.529 
0.000513339      2.23988      106.736 
0.000175566     0.898624      123.425 
0.000904186     0.757166      123.690 
0.000254901    0.0424264      135.000 
0.000587024     0.429535      102.095 
0.000255623     0.135000     -90.0000 
0.000657079     0.911181      122.905 
0.000638447     0.150000     -90.0000 
0.000242867      2.09211      107.526 
8.14442e-05      2.15087      102.485 
0.000160190    0.0335410      116.565 
0.000389302      2.25858      106.991 
0.000883694     0.447493      103.570 
0.000228606      2.13301      102.179 
0.000154110    0.0150000      90.0000 
0.000727319     0.923810      122.400 
0.000502552      2.09668      107.916 
0.000584281     0.150748     -84.2894 
7.63907e-05     0.915860      121.608 
0.000774856     0.744731      124.330 
0.000220006    0.0212132      45.0000 
7.45685e-05      2.14767      102.095 
0.000145989     0.167705      100.305 
0.000216325      2.27733      107.241 
0.000143721     0.315357      92.7263 
0.000337429      2.12989      101.785 
7.06047e-05    0.0335410      26.5651 
0.000458802     0.182483      99.4623 
0.000137801      2.29166      107.130 
0.000271490    0.0450000      0.00000 
0.000593699     0.165680     -84.8056 
6.85569e-05     0.316425      95.4403 
0.000586754     0.928668      121.122 
0.000437503      2.10134      108.306 
0.000196771     0.318198      98.1301 
0.000260509      2.31044      107.376 
0.000857374     0.462088      103.134 
0.000438500    0.0600000      0.00000 
0.000655370     0.753293      125.272 
6.46619e-05     0.303356      98.5308 
0.000409813      2.12688      101.389 
0.000184226     0.963042      127.405 
0.000123618     0.305941      101.310 
0.000475386     0.167705     -79.6952 
0.000357224      2.32925      107.618 
0.000179664     0.941541      120.651 
0.000116437     0.154434     -150.945 
0.000344287     0.309233      104.036 
0.000117529     0.972227      128.108 
0.000175286    0.0750000      0.00000 
0.000171609     0.933983      119.859 
0.000381546      2.10610      108.693 
0.000112815     0.171026      105.255 
5.69815e-05     0.960469      128.660 
0.000434609    0.0912414     -9.46232 
0.000220540     0.981555      128.797 
0.000899204     0.182483     -80.5377 
0.000269161      2.34811      107.856 
0.000624197     0.476707      102.724 
0.000613063     0.947022      119.407 
0.000201833     0.167705     -153.435 
0.000361532     0.313209      106.699 
0.000207971      2.12397      100.993 
0.000104376     0.156605      106.699 
0.000105285     0.732393      124.992 
0.000105633     0.969910      129.352 
0.000251607     0.991022      129.472 
0.000201233     0.109202     -15.9454 
0.000338464     0.741097      125.942 
0.000245509      2.13005      109.328 
0.000149345      2.35275      108.204 
4.96246e-05     0.338415      77.1957 
0.000146002      2.10925      101.070 
0.000140808     0.109202      105.945 
9.63540e-05     0.134164     -26.5651 
0.000321133     0.303727      110.225 
9.56954e-05     0.979490      130.030 
0.000186937      2.37171      108.435 
9.43088e-05     0.342053      74.7449 
0.000534513     0.491350      102.339 
0.000230554     0.128160     -20.5560 
0.000627870      2.10642      100.670 
0.000484357      1.00062      130.135 
0.000137592      2.13506      109.708 
0.000773407     0.960117      118.968 
0.000145930    0.0948683      108.435 
0.000252466     0.181246     -155.556 
8.79484e-05     0.317844      109.290 
0.000337572     0.720156      125.676 
8.85069e-05      2.37649      108.778 
0.000252280     0.346302      72.3499 
8.81031e-05      2.15426      109.949 
0.000257736     0.154434     -29.0546 
0.000620481     0.197294     -81.2538 
0.000168411      2.39554      109.002 
0.000127146      2.15943      110.323 
0.000204226      1.91824      102.189 
8.28666e-05     0.309233      112.834 
4.17475e-05    0.0764853      101.310 
0.000236360     0.147733     -23.9625 
0.000121136      2.18403      110.925 
0.000552948     0.506014      101.976 
0.000557713      1.01036      130.786 
8.04980e-05      2.40047      109.341 
0.000438494     0.323110      111.801 
0.000181157    0.0912414      99.4623 
7.81378e-05      2.40548      109.678 
7.77698e-05      2.18943      111.291 
0.000259226     0.351141      70.0169 
0.000114989     0.708025      126.384 
0.000114692      1.91513      101.750 
0.000112681     0.142302     -18.4349 
7.58397e-05      2.19493      111.656 
0.000149050      2.41057      110.014 
0.000470505     0.195000     -157.380 
0.000109804      2.20051      112.019 
0.000210485     0.939747      118.610 
0.000529310      1.90045      101.842 
0.000108772     0.687059      126.119 
0.000430179     0.167705     -26.5651 
0.000300923      2.10369      100.268 
0.000140703      2.41575      110.348 
3.56595e-05      2.22577      112.590 
0.000170630      2.20617      112.380 
0.000762463     0.675000      126.870 
6.78509e-05     0.138293     -12.5288 
0.000383157     0.356546      67.7510 
0.000164664      2.42100      110.681 
9.93954e-05     0.200125     -77.0054 
0.000160969      2.23157      112.946 
0.000132118      1.02022      131.424 
0.000449238      2.08894      100.342 
3.31413e-05     0.993630      118.887 
0.000215587     0.212132     -81.8699 
0.000486710     0.520697      101.634 
0.000401999      3.64290      128.144 
3.22020e-05     0.919416      118.237 
0.000330097      1.03152      130.872 
0.000422696     0.328976      114.228 
9.27323e-05      1.01403      119.219 
3.17491e-05      2.15604      111.209 
0.000122994      2.42634      111.012 
0.000120535     0.906228      118.686 
0.000146574     0.135831     -6.34019 
6.10728e-05      2.47868      105.803 
8.96460e-05      2.25719      113.499 
0.000417333      1.21537      65.9657 
5.90691e-05      2.14206      111.354 
0.00116364     0.663061      127.648 
5.79596e-05      2.49312      105.709 
0.000550320     0.208926     -158.962 
0.000113837      2.43176      111.342 
0.000302718     0.362491      65.5560 
0.000214219      1.03446      119.539 
0.000113802     0.174929     -30.9638 
0.000219121     0.993290      75.1243 
2.89251e-05      2.51164      105.945 
2.88544e-05      1.89743      101.399 
2.85998e-05      2.27694      113.694 
0.000387811     0.214767     -77.9052 
0.000734132      1.88272      101.489 
5.56783e-05      2.14757      111.727 
0.000134611     0.885889      118.301 
5.51225e-05      2.50756      105.616 
5.48108e-05      2.26321      113.847 
0.000482589      1.04139      131.496 
2.71416e-05      2.42332      111.801 
0.000300813     0.187949     -28.6105 
5.30630e-05      2.12810      111.501 
0.000447658      2.52606      105.852 
0.000102895      2.43726      111.670 
7.76173e-05      2.28301      114.039 
2.56669e-05      2.13364      111.876 
0.000120748     0.135000      0.00000 
0.000351875     0.355598      62.3540 
0.000680358      3.83959      135.000 
9.81345e-05      1.00779      75.3432 
4.97319e-05      2.17645      113.562 
0.000684606      2.62757      130.601 
7.18084e-05     0.865592      117.897 
2.44143e-05      3.63366      127.958 
7.13020e-05      2.42893      112.130 
2.42814e-05      2.16271      113.720 
0.000317551      4.87599      123.201 
9.20396e-05     0.535397      101.310 
0.000221694      1.04753      119.134 
4.71541e-05      2.28916      114.382 
0.000131576      3.65708      126.494 
7.02292e-05      2.07418      100.416 
2.38548e-05     0.120934      119.745 
7.03961e-05      3.82900      135.159 
2.37054e-05      2.10866      111.272 
0.000240874      3.83792      125.616 
8.91517e-05      3.63112      128.290 
0.000237679      1.00410      76.1713 
6.80770e-05      2.17495      114.444 
0.000339818     0.335410      116.565 
0.000470126     0.651249      128.454 
0.000300312      3.13338      120.493 
0.000357110     0.778267      117.553 
0.000107996      2.44284      111.997 
9.45182e-05      3.04821      126.193 
8.71530e-05      2.29539      114.723 
0.000314544      2.07152      100.008 
0.000228552      2.14201      127.030 
6.44652e-05      2.10327      110.891 
0.000258424     0.195576     -32.4712 
4.35029e-05     0.129035      125.538 
0.000123535      3.06033      126.027 
0.000114611      3.05153      125.800 
9.84493e-05      4.86345      123.298 
0.000116185     0.362802      60.2551 
4.15715e-05      2.18120      114.803 
0.000388164      1.05139      132.109 
4.11424e-05     0.135831      6.34019 
0.000157226      4.85919      123.543 
8.06614e-05     0.349857      59.0362 
0.000137028     0.222991     -160.346 
0.000365054      2.13301      126.709 
2.04028e-05      3.62184      128.104 
2.01875e-05      2.44983      105.994 
3.97398e-05      2.30171      115.062 
2.01031e-05     0.138293      130.601 
5.87900e-05      2.45675      111.866 
0.000113516     0.229456     -78.6901 
3.95143e-05      2.08392      110.653 
3.94626e-05      1.04031      118.413 
1.99093e-05      3.82920      125.433 
3.93608e-05     0.411886      33.1113 
0.000253363      3.84144      125.304 
5.62298e-05      3.61935      128.437 
0.000397603      1.87110      102.031 
0.000165470      1.00062      77.0054 
0.000827804      3.12047      120.633 
0.000205940      3.66028      126.165 
0.000165562      2.37777      119.476 
7.58103e-05     0.148492      135.000 
0.000464302     0.342710      113.199 
0.000400335     0.424529      32.0054 
1.92329e-05      2.18753      115.159 
0.000127660      1.05353      118.025 
5.64222e-05      4.62623      123.896 
7.13140e-05      4.82219      124.481 
0.000123382      2.07868      110.266 
0.000117519     0.986015      76.8094 
0.000190167      2.43541      106.091 
1.83405e-05      4.61788      123.742 
1.83215e-05      2.44849      112.323 
0.000340570     0.218403     -164.055 
0.000221802      3.06679      133.216 
0.000235397      4.41082      122.501 
0.000268597      2.54050      105.760 
3.57562e-05     0.138293      139.399 
1.80344e-05      4.60542      123.845 
0.000170649     0.878877      117.440 
1.79065e-05      4.63172      122.300 
3.43732e-05      2.32268      114.413 
0.000112303      1.23520      65.6136 
5.15500e-05     0.218403     -74.0546 
0.000159515      4.62372      122.143 
5.14281e-05     0.368951      63.4349 
0.000530783      3.19683      113.799 
0.000145887      2.38519      119.790 
6.70526e-05     0.538540      102.875 
6.56007e-05     0.150000      143.130 
0.000138082      2.19436      121.300 
1.70528e-05      2.46238      112.190 
3.31230e-05     0.159452      138.814 
3.33902e-05      4.83070      124.628 
4.74458e-05      1.04657      117.300 
1.68145e-05      3.64818      126.304 
7.74318e-05      1.78651      103.103 
0.000128466      4.24444      124.926 
4.89671e-05      1.79261     -5.28124 
7.65723e-05      3.03938      125.965 
3.19873e-05      3.61005      128.251 
0.000365899     0.204022     -36.0274 
0.000169310      3.83279      125.121 
0.000307588     0.232863     -75.0686 
6.29689e-05      2.23183      98.8925 
9.45414e-05      4.82692      124.875 
9.16218e-05     0.375899      61.3895 
3.17488e-05      2.47068      111.737 
3.19679e-05      1.06257      131.566 
0.000247842      1.93494      119.745 
0.000144584      1.42302      108.435 
4.65188e-05      1.79405     -5.75826 
4.60055e-05      2.06461      110.410 
0.000616311      1.07258      132.166 
0.000264722     0.982700      77.6609 
1.55775e-05      2.33634      114.261 
8.89063e-05     0.171026      142.125 
0.000577242      4.23587      124.759 
0.000101520      3.30409      110.739 
0.000164839      4.39817      122.606 
1.51206e-05      1.84598     -1.86262 
0.000429797      2.40567      119.922 
1.50328e-05      2.47627      112.059 
0.000186599      1.81221     -6.65443 
7.14284e-05      4.83552      125.021 
0.000196853      3.29881      110.495 
0.000542178      2.22956      98.5117 
1.46796e-05      1.84555     -1.39718 
1.46388e-05      4.62219      124.154 
1.46176e-05      3.60762      128.585 
1.46192e-05      2.48462      111.609 
5.62090e-05      2.06989      110.799 
5.42137e-05      1.41835      107.860 
0.000256403      2.62744      113.199 
8.42298e-05      2.05675      100.081 
5.07161e-05      1.86054     -1.38592 
0.000136932      3.65144      125.975 
0.000340355      1.32485      120.630 
1.40940e-05      3.82418      124.937 
1.40674e-05      2.36986      114.294 
5.37445e-05     0.389134      62.4472 
5.16182e-05      3.59828      128.399 
2.76807e-05     0.192094      141.340 
2.76219e-05      3.82053      125.250 
0.000150655      1.86586      65.2892 
0.000499286     0.437321      30.9638 
9.90004e-05      1.86803      101.581 
5.22549e-05      1.86024    -0.924045 
0.000102258      1.64488      96.2825 
0.000144991      3.81189      125.066 
1.35306e-05      4.60979      124.259 
0.000300188     0.892216      116.996 
8.93410e-05     0.183098      145.008 
8.93608e-05      4.84414      125.166 
4.79765e-05      2.39723      113.999 
5.20193e-05      2.05588      110.947 
0.000258752      5.09121      134.761 
1.31404e-05     0.791596      117.051 
3.76143e-05      4.61825      124.413 
0.000286404      3.08800      133.229 
0.000380956      1.87985      94.1182 
6.72343e-05      4.62849      121.887 
0.000230751      2.88628      102.303 
0.000279044      4.06967      120.819 
1.25439e-05      2.20719      121.097 
1.25357e-05      1.03977      116.565 
3.70053e-05      2.06129      111.337 
1.24732e-05      1.03977      63.4349 
3.56944e-05      1.87554      1.37483 
0.000106372      1.04657      62.7004 
1.20560e-05      1.79010     -4.32506 
4.60229e-05      1.17355      125.112 
2.34987e-05     0.165680      5.19443 
0.000102222     0.968052      77.4712 
0.000199425      2.41686      105.848 
0.000191533      3.11343      106.514 
9.05222e-05      2.04732      111.490 
4.31948e-05      2.38354      114.146 
0.000162987     0.195576      147.529 
0.000140895      1.64330      95.7626 
6.83542e-05      4.85280      125.311 
0.000116521      4.41889      122.665 
0.000192706      3.92186      140.587 
3.04828e-05      4.88855      123.105 
9.78634e-05      6.05846      133.495 
4.27007e-05      1.79129     -4.80349 
6.37055e-05      1.89095      1.81830 
0.000109152     0.214767     -167.905 
1.11936e-05      1.81053     -6.18293 
0.000191429      1.92193      119.967 
2.15155e-05     0.553173      102.529 
2.14619e-05      1.43264      107.676 
1.09357e-05      3.58898      128.211 
6.77591e-05      2.55494      105.668 
5.13878e-05      1.87949      65.4804 
0.000144765      2.03337      111.644 
8.47751e-05      1.82711     -6.59992 
1.07359e-05      4.62674      124.566 
0.000311179      4.25675      124.810 
0.000109889      4.86148      125.455 
5.12300e-05     0.964909      78.3407 
4.67040e-05      2.49018      111.930 
1.05596e-05      1.17010      126.135 
3.89165e-05      3.63932      126.114 
5.27597e-05     0.167705      10.3048 
0.000142788     0.237171     -71.5651 
0.000271631      6.17308      135.197 
0.000262706      1.78500     -61.9275 
7.46820e-05      1.18224      125.707 
0.000211453     0.722496      85.2364 
2.02562e-05      3.58236      127.686 
0.000567842      2.89780      101.950 
0.000580561      5.09117      135.000 
8.44494e-05      1.97619     -34.1725 
0.000315847      2.64715      113.369 
4.30683e-05      4.40627      122.770 
6.98990e-05      3.80329      124.881 
4.79492e-05      6.04759      133.593 
9.81861e-06      3.57605      127.158 
0.000374822     0.208387      149.744 
0.000553590     0.560045     -7.69605 
0.000272490      1.62838      95.8156 
0.000111481      1.09253      45.5563 
9.71479e-06     0.567825      102.200 
0.000108173     0.950224      78.1579 
0.000250916      1.85497     -30.0897 
0.000123737      1.88577      65.0657 
5.27945e-05      1.89149      2.27245 
3.58797e-05      4.62058      121.729 
2.73611e-05     0.611882      101.310 
5.37019e-05      3.57900      126.822 
0.000160014      3.19982      116.445 
0.000145496      1.33778      120.303 
0.000131371     0.216333      146.310 
6.19355e-05      4.85801      125.702 
0.000106961      4.24821      124.644 
0.000166553      2.12100      126.951 
0.000118218      1.05353      61.9755 
0.000227832      6.03725      133.490 
3.24448e-05      2.41094      113.854 
0.000112885     0.737445      85.3331 
5.76485e-05      4.87020      125.599 
1.72180e-05      2.43301      143.271 
2.54305e-05      3.37713      105.456 
0.000134718      2.01944      111.801 
3.30490e-05      1.27085      101.575 
0.000181821     0.963042      142.595 
1.41406e-05      1.80506     -4.28915 
7.58584e-05     0.609118      99.9262 
0.000136172      1.96380     -34.4184 
7.42893e-05      2.55093      105.344 
0.000402437      2.42407      143.556 
0.000119820      4.63335      121.632 
7.72419e-05      1.46425      60.5463 
0.000109327      1.17900      126.724 
0.000105689      3.58208      126.486 
8.08873e-06      3.39159      105.388 
8.65341e-05      2.63736      130.849 
9.94365e-05      4.86678      125.846 
5.65272e-05      2.03895      112.036 
4.58360e-05      3.38764      105.144 
1.53141e-05      1.87554     -1.37483 
5.46459e-05      3.12360      106.172 
2.92876e-05      1.84378     -7.00938 
4.89851e-05      3.69165      135.988 
7.67272e-06      1.26792      100.911 
2.18553e-05      1.89214      2.72631 
0.000113989      1.28265      100.784 
6.59959e-05     0.450250      29.9816 
0.000122627      2.41318      120.231 
0.000185829     0.251446     -72.6460 
0.000110847     0.322064      117.759 
2.85171e-05      4.87894      125.742 
7.21560e-06      3.40212      105.078 
0.000336515      2.26614      96.8428 
0.000148002      3.20291      114.044 
2.88288e-05      3.10757      120.774 
6.16739e-05     0.905608      116.565 
0.000203762      4.15800      126.787 
4.78122e-05      3.39825      104.834 
7.08593e-06      2.40337      114.326 
1.93844e-05      1.80624     -4.76364 
4.77457e-05     0.932537      78.8708 
0.000162697      2.04463      112.426 
4.91689e-05      2.41705      114.179 
8.00628e-05      4.06201      120.637 
2.47118e-05      1.87596     -1.83284 
2.60267e-05      1.09510      76.5348 
0.000271686      2.40244      105.945 
1.26875e-05      3.79100      125.011 
2.52788e-05      1.90789      3.15484 
1.28665e-05      3.41276      104.769 
0.000119875     0.594348      100.176 
6.45050e-05      4.42701      122.829 
4.53666e-05      2.02506      112.195 
0.000186353     0.229456     -168.690 
0.000114736      4.87558      125.988 
0.000140912      3.40896      104.525 
2.09863e-05     0.182483      9.46232 
0.000178942      1.86254     -30.4889 
9.10032e-05      2.56539      105.255 
3.94309e-05      3.85021      134.842 
0.000194224      3.93140      140.418 
6.97987e-05      3.68124      136.156 
0.000138282      1.86387      93.6914 
0.000279951      1.57785     -65.8716 
0.000127847      3.02335      136.005 
7.35971e-05      3.20653      116.685 
9.02637e-05      3.56110      126.435 
5.82985e-05      1.09869      75.7740 
9.25461e-05      1.89938      65.2565 
8.91573e-05      1.35075      119.982 
1.64705e-05      1.85867     -6.95296 
5.27892e-05      1.96001     -35.0279 
4.64676e-05      1.90878      3.60442 
0.000119246      6.16252      135.296 
9.62435e-05      5.97424      136.730 
5.56135e-05      1.18803      127.304 
8.27491e-05      1.08208      46.1233 
2.58228e-05      2.64719      131.094 
0.000139503      1.87650     -2.29061 
1.53928e-05      1.90895      120.192 
3.98098e-05      1.82001     -4.25384 
0.000136446      4.62550      121.474 
2.98616e-05      3.39478      123.830 
2.56585e-05     0.201246      153.435 
2.74297e-05      2.50410      111.801 
0.000140280      4.88772      125.885 
0.000167054     0.545183     -7.90716 
8.78297e-05      6.02694      133.386 
0.000108975     0.540833     -33.6901 
0.000132051      1.61346      95.8696 
4.97477e-06      3.78241      124.824 
8.96399e-06      1.06066      61.2602 
0.000178898      3.41977      104.219 
3.66444e-05      3.88294      133.748 
9.62160e-06      1.91824      124.808 
3.08081e-05      2.83313      123.774 
0.000148091      4.07492      120.530 
5.52216e-05     0.582495      101.889 
9.56797e-05      3.40315      124.040 
8.94872e-05      3.21326      116.326 
3.45698e-05      1.92684      125.175 
2.55896e-05      1.87542     -7.35238 
6.20015e-05      2.63591      131.309 
3.75336e-05      1.27993      100.125 
1.77383e-05      4.88441      126.131 
5.47210e-05     0.574130      146.725 
2.79297e-05      1.94775     -35.2812 
7.42419e-05      3.68173      136.486 
3.00079e-05     0.898999      115.710 
0.000111740      1.11324      75.9638 
7.03105e-05      1.09377      132.221 
2.80569e-05      1.90978      4.05355 
2.87168e-05      1.93802     -37.1360 
0.000123147      3.43893      101.065 
0.000129201      1.08270      132.754 
8.01541e-05      2.62607      144.767 
2.62157e-05      4.43962      122.724 
4.23441e-06     0.991476      107.613 
1.58262e-05     0.185540      14.0362 
8.86577e-05      3.89379      133.595 
6.82402e-05      1.79211     -61.5044 
0.000133420      1.86296      93.2310 
2.44614e-05     0.736376      86.4965 
8.03203e-05     0.987041      106.783 
2.67624e-05     0.582495      145.491 
5.45834e-05      4.16700      126.952 
-0.000304933      1.46609     -7.05231 
1.10481e-05     0.721405      86.4237 
1.44739e-05      1.93552      125.538 
2.90454e-05      2.42323      114.503 
0.000101111     0.537075     -35.9097 
1.09582e-05      1.86218     -2.77022 
3.27861e-05     0.200125      12.9946 
3.46721e-05      1.47168      60.0378 
3.66827e-06      1.93523     -37.7581 
2.60200e-05     0.975000      143.130 
4.24467e-05      3.03416      136.202 
6.10705e-05      2.64124      113.070 
3.61903e-06      1.83393     -3.75173 
1.64794e-05      1.29470      100.008 
3.58057e-06      2.51803      111.675 
-0.000193014      1.88033     -68.9625 
5.28759e-05      5.98517      136.828 
7.57368e-05      2.57987      105.167 
7.90170e-05      1.92340     -38.0317 
8.64430e-05      1.89214      64.6538 
5.21680e-05      6.00573      133.381 
4.25450e-05      2.88312      102.011 
9.47262e-06      1.95144     -34.6673 
1.90795e-05      4.83908      127.190 
3.31103e-06      1.18538      128.320 
3.91638e-05      2.06897      99.5989 
1.87944e-05      3.68234      136.816 
1.50757e-05      1.17154      129.806 
3.20278e-05      1.35831      120.530 
3.06363e-06      1.94428      125.897 
-0.000162519      1.61311      67.0113 
2.03976e-05      1.73929     -66.0877 
-0.000111797      3.93909      130.057 
2.85284e-05      2.64583      131.553 
2.91635e-05      3.90467      133.443 
5.82070e-06      4.82713      127.297 
3.78650e-05      1.79931     -61.0846 
5.83348e-06     0.546008     -37.1847 
5.78258e-06      3.67209      136.986 
-0.000114880      6.29444      137.221 
2.17423e-05      1.81896     -3.78265 
-8.21648e-05     0.845473     -25.2011 
6.20813e-05     0.564646     -39.6107 
-9.34142e-05      2.27070      136.606 
5.40268e-05      2.40309      143.631 
5.66210e-06      2.53753      111.864 
1.57999e-05     0.204022      17.1027 
6.35236e-05      3.89437      133.283 
8.29543e-06      1.18310      129.341 
3.88069e-05      5.17143      124.243 
-1.09435e-05      1.48288      7.55634 
1.86301e-05      2.87163      102.366 
3.37396e-05      1.68808     -67.5368 
2.81821e-05     0.265801     -73.6105 
1.82674e-05      2.05040      112.813 
7.94415e-06      1.94295     -34.3035 
2.84442e-05      3.94297      140.557 
2.83816e-05      1.34541      120.854 
2.69927e-06      1.90571      64.8469 
1.56419e-05      1.20000      126.870 
-4.61931e-05      1.48098      6.98106 
1.02055e-05      2.40959      114.651 
-4.60121e-05      2.92288      113.276 
1.52176e-05      1.59854      95.9246 
2.61129e-06      2.61383      144.577 
1.76654e-05      1.87019     -30.8849 
7.59552e-06      2.38802      106.044 
2.57417e-06      1.16981      130.840 
2.56760e-06      2.22046      91.1612 
-3.26431e-05      1.40408      49.3323 
1.00335e-05      1.85964      102.579 
7.60271e-06     0.286575      42.8789 
2.25554e-05      2.39103      143.418 
1.00702e-05      2.85698      102.431 
1.00507e-05      2.23545      91.1535 
-3.99956e-05    0.0807775     -111.801 
7.51558e-06      4.61769      121.315 
-1.49504e-05      1.48098     -6.98106 
1.24423e-05     0.576281     -38.6598 
7.42216e-06      2.67606      127.255 
7.42533e-06     0.297741      40.9144 
4.95062e-06      3.20663      116.086 
2.48330e-06      5.99612      136.926 
2.46782e-06      1.21203      126.444 
2.47034e-06      3.42348      104.462 
-2.46522e-06      6.28427      137.322 
2.46689e-06      1.60507     0.535459 
-2.46112e-06      2.38934      132.201 
2.45673e-06      2.26520      90.7588 
2.45704e-06      1.88511      64.0466 
