! Center RA: 12 21 31.69052,  Dec: +28 13 58.50011 (2000.0)
! Established model.
! Flux (Jy) Radius (mas)  Theta (deg)  Major FWHM (mas)  Axial ratio   Phi (deg) T \
! Freq (Hz)     SpecIndex
 0.0365368    0.0286526      45.0000 
 0.0150512    0.0202604      90.0000 
 0.0557429    0.0446338      63.0042 
 0.0354393    0.0633577     -108.650 
 0.0517342    0.0828082     -104.162 
 0.0102179    0.0896014     -116.350 
0.00492023    0.0633577      71.3505 
 0.0402715    0.0600310      90.0000 
0.00320378    0.0802914      90.0000 
0.00254755     0.101837      101.476 
0.00625188     0.107434     -111.727 
0.00842896    0.0202604      0.00000 
 0.0116931     0.121759      99.5784 
0.00726810     0.134233     -116.565 
 0.0111757     0.126477     -108.327 
0.00150708    0.0202604     -90.0000 
 0.0127824     0.145849      105.824 
 0.0122319      0.00000      0.00000 
0.00124209     0.141777      98.2159 
0.00303893     0.152624     -113.162 
0.000979980     0.170734      110.586 
0.000143356     0.197181      114.029 
0.000206936     0.223834      116.479 
0.000976296    0.0998015      90.0000 
0.000799760     0.250509      118.638 
0.000180988     0.304887      121.617 
0.000547239     0.332828      122.759 
0.000246234     0.360880      123.723 
6.22163e-05     0.278118      120.301 
0.000674878     0.387976      124.520 
0.00184938    0.0202604      180.000 
0.00197344     0.145849     -105.824 
0.000105684     0.121759     -99.5784 
0.000256072     0.416183      125.237 
0.000791257    0.0286526     -135.000 
0.000398675    0.0446338     -153.004 
0.00218540     0.120062      90.0000 
0.000633073     0.350038      120.964 
0.000104523     0.366905      119.396 
0.000298521     0.447333      116.608 
0.000484059     0.465536      115.491 
0.000827677     0.491629      116.565 
0.000786367     0.675085      101.997 
0.000592195     0.518891      117.566 
7.31171e-05     0.344213      125.596 
0.000430346     0.315980      124.747 
0.000762118     0.679409      103.606 
3.22948e-05     0.372066      126.223 
0.000124419     0.545937      118.397 
9.08437e-05     0.399806      126.913 
0.000145993     0.563176      117.453 
0.000457728     0.141777     -98.2159 
0.000530849     0.474259      117.619 
0.000647798     0.288454      123.649 
2.84690e-05     0.572799      119.251 
0.000233079     0.411820      129.084 
5.54442e-05    0.0397705     -90.0000 
0.000563385     0.590559      118.291 
2.72289e-05     0.791300      106.132 
5.33374e-05     0.810060      105.749 
7.69215e-05     0.797167      107.531 
9.47777e-05     0.829578      105.369 
2.53578e-05     0.380236      86.9456 
0.000357690     0.381773      84.0205 
0.000244948     0.849131      105.006 
0.000159427    0.0633577     -71.3505 
0.000223215     0.777872      107.981 
0.000704943     0.164706     -103.973 
0.000182057     0.867991      104.673 
0.000239621     0.424884      131.205 
0.000740554    0.0446338     -63.0042 
0.000280895     0.659734      104.020 
0.000439139     0.260826      122.547 
0.000202707     0.887605      104.342 
0.000772384     0.618057      119.055 
0.000376050     0.784114      109.337 
0.000217365     0.438496      133.197 
0.000393577     0.384412      81.0157 
0.000179987     0.907248      104.025 
0.000250701     0.931206      104.943 
0.000208433     0.452074      135.000 
0.000411960     0.161111     -97.2243 
0.000559801     0.791053      110.721 
0.000288475    0.0720098     -56.4755 
0.000213414     0.101837      78.5245 
0.000273938     0.388092      78.0600 
0.000162217     0.950796      104.628 
5.19433e-05     0.640096      104.460 
1.36045e-05     0.992954      99.2630 
8.79894e-05     0.121759      80.4216 
0.000146325      1.01296      99.0785 
0.000192690     0.466621      136.759 
0.000754509    0.0562440     -45.0000 
7.16272e-05     0.780402      112.620 
0.000155480     0.184432     -102.453 
0.000186026     0.955909      105.760 
4.74228e-05      1.16375      109.042 
1.19749e-05     0.635182      118.200 
0.000404281      1.17052      109.980 
0.000223821     0.475398      75.3715 
0.000363498      2.12822      111.490 
0.000242528     0.369026      77.4333 
0.000724315     0.466502      120.980 
6.63010e-05     0.635505      102.756 
0.000113378     0.644631      119.728 
0.000137623     0.481580      138.411 
9.39488e-05      1.01006      97.9856 
0.000145543     0.159832     -90.0000 
0.000205847     0.181229     -96.4188 
0.000151672     0.107434      68.2729 
0.000199256     0.961610      106.922 
0.000528835      2.13573      111.996 
0.000446496     0.496341      139.906 
0.000282647     0.480914      73.0353 
0.000242587     0.815792      107.118 
0.000254092      1.17760      110.906 
0.000271529     0.373757      74.5128 
0.000499294     0.627763      120.611 
6.78445e-05      1.00745      96.8445 
5.98540e-05     0.631341      100.963 
6.44984e-05     0.967701      108.070 
4.21955e-05     0.986983      107.705 
7.30861e-06     0.787330      117.224 
0.000169981     0.180093     -90.0000 
8.34165e-05     0.271820      126.016 
8.82631e-05     0.796445      118.473 
0.000351655     0.161111     -82.7757 
2.63867e-05      1.00523      95.6978 
0.000183797     0.993090      108.777 
0.000241084     0.803259      108.858 
4.83975e-05     0.980215      91.1844 
0.000137065      1.18470      111.788 
0.000100521     0.116465      58.9729 
3.88032e-05     0.980005      90.0000 
1.06357e-05      1.17680      107.823 
0.000242995      2.05568      107.549 
0.000250313     0.959745      90.0000 
0.000174407     0.486965      70.8391 
0.000248934      1.18945      106.606 
3.31196e-05      1.19237      112.692 
0.000161922     0.999795      109.877 
1.43250e-05     0.788772      120.468 
0.000110933     0.181229     -83.5812 
0.000157485     0.354273      73.6379 
1.40546e-05     0.806301      119.738 
0.000112367      2.23812      114.271 
9.80535e-05      2.14340      112.498 
3.04788e-05    0.0848966     -45.0000 
1.24790e-05     0.627803      99.1471 
8.71897e-05     0.799236      121.720 
6.99544e-05      1.18179      113.977 
-0.000504706     0.170734     -159.414 
2.30017e-05     0.269397     -138.048 
5.58918e-05     0.284207     -140.679 
9.45411e-05     0.164706     -76.0271 
0.000118321      1.00686      110.961 
8.55963e-05     0.493986      68.6188 
5.88707e-05      1.18985      114.836 
7.71262e-05      2.15094      112.978 
5.57972e-05     0.349279      76.7101 
1.68374e-05     0.128090      51.1829 
5.74423e-05     0.288454     -146.351 
3.82028e-05      1.18381      105.666 
1.66971e-05    0.0896014     -63.6495 
-8.54369e-05     0.636355      133.710 
-6.14773e-05     0.739882      90.0000 
-6.32528e-05     0.188432      148.019 
0.000370969      3.20663      113.530 
-0.000480243      4.68978      86.3305 
-0.000424778      10.7059      135.528 
-0.000519888      9.32421      31.8495 
0.000275074      9.88738     -140.417 
0.000338367      14.1006     -135.632 
0.000392610      9.15177     -150.692 
-0.000361677      7.13121      11.8160 
0.000195421      6.48463     -153.832 
-0.000174993      7.89357      119.946 
-0.000324712      8.86978      92.7155 
0.000136754      4.04606     -6.52795 
0.000166826      10.0248     -52.3744 
0.000437190      12.0384      48.1001 
0.000251633      3.21447      113.848 
0.000253569      11.7858      46.7182 
-0.000213505      4.11063      18.4316 
0.000275013      7.60073     -97.2541 
-0.000255011      7.33788     -141.973 
0.000246737      3.58738     -67.7268 
0.000573130      6.37412     -101.765 
0.000243917      6.98790     -43.8383 
9.70949e-05      2.25201     -70.2730 
-3.40149e-05      7.12899     -63.8638 
-0.000208364      9.10178     -160.890 
9.64788e-05      5.78808      66.8053 
-9.27024e-05      8.89296     -54.0594 
6.31838e-05      3.63969     -149.634 
0.000356748      9.62339      131.209 
6.31121e-05      7.42540      134.234 
0.000183467      7.61162      152.963 
0.000262841      7.36704      167.774 
-3.27512e-05      4.08597      18.2586 
-0.000119229      7.14719     -63.9353 
-8.94376e-05      10.8505     -46.4207 
0.000175281      6.98250      68.1380 
8.99700e-05      8.60986     -19.8231 
-0.000117656      9.79061      92.6929 
-5.99477e-05      7.90332      120.068 
3.11416e-05      10.9051     -37.7744 
8.77679e-05      8.17435      101.147 
0.000144268      2.82664     -71.4400 
-0.000143366      5.91986      124.814 
-8.76535e-05      5.86684      172.755 
-5.98542e-05      10.0241     -33.2785 
0.000169212      5.79608      64.2311 
-3.03652e-05      9.08263     -160.848 
-0.000194613      12.7997      131.135 
0.000167671      10.5636     -162.595 
2.99825e-05      1.86032    -0.624012 
0.000111403      12.6340     -125.856 
0.000113806      5.46991      15.9162 
-0.000140784      9.41447     -100.401 
-8.51854e-05      6.26464      81.7428 
-8.25524e-05      8.54913      170.033 
-2.90686e-05      7.28819     -87.3267 
8.22189e-05      3.28793     -126.593 
-2.87243e-05      8.40352      149.226 
0.000107983      6.08791      53.2784 
-5.60311e-05      9.92313      74.4504 
-2.85661e-05      2.77119      67.5043 
-8.25936e-05      7.30003     -25.3033 
2.83852e-05      2.27770     -69.9830 
5.46724e-05      10.9940     -56.4271 
2.81829e-05      6.20915      73.7246 
-0.000109013      7.71500      59.9786 
-5.42162e-05      9.20273     -75.2714 
0.000107043      7.91587     -26.2396 
-5.48162e-05      7.32193     -141.876 
8.07611e-05      7.95122      95.0515 
-5.41003e-05      9.34202      108.863 
-5.34344e-05      7.89384     -6.69265 
5.36546e-05      9.90242     -140.489 
-8.09399e-05      9.33545      3.31778 
2.76044e-05      10.2635      40.0174 
-2.75444e-05      11.9050     -132.479 
2.74220e-05      6.21465      73.5519 
5.30766e-05      7.59425      152.896 
-5.30282e-05      9.34079      31.7863 
-5.32358e-05      11.8918     -132.409 
-2.69551e-05      4.18009      53.9530 
2.69032e-05      10.5175      121.786 
2.68794e-05      8.84677     -158.656 
-2.68512e-05      5.97983     -157.380 
2.68519e-05      5.10061      159.576 
2.67405e-05      10.8274      54.5486 
5.24063e-05      8.09166     -48.7071 
-2.66641e-05      10.8280     -66.3697 
2.66614e-05      11.8660     -135.615 
-2.65514e-05      8.42066      141.171 
-2.65717e-05      11.2629      145.126 
2.63819e-05      10.2785      39.9475 
-2.63249e-05      13.9461      44.0713 
-2.62773e-05      5.16624     -13.6608 
2.62196e-05      11.2427     -63.4794 
2.60976e-05      7.79064      147.900 
-2.60014e-05      6.21739      9.06897 
2.59745e-05      5.45043      15.9747 
2.59844e-05      6.52920      112.324 
2.57928e-05      12.0209      134.866 
-0.000154183      3.86914      54.2569 
-0.000114629      9.00589     -71.8881 
0.000194963      8.22221      145.305 
0.000167669      7.35684     -160.628 
-0.000216730      4.14909      18.2547 
-0.000100392      10.2774      169.346 
0.000208064      8.08416      147.528 
0.000156727      3.82054     -64.9097 
-0.000142521      9.41351     -114.876 
-9.93459e-05      3.85734      54.5012 
-0.000290918      10.2965      169.366 
5.12162e-05      7.52346     -88.1710 
-0.000200030      11.1185     -133.690 
7.42919e-05      5.50213     -88.5386 
-9.16755e-05      8.99985     -72.0062 
-0.000153066      3.50707      104.194 
-0.000173961      8.62148      142.067 
0.000269505      12.0681     -138.226 
0.000141073      11.9889      58.2976 
0.000173618      8.52998      77.2695 
-0.000175159      13.1696     -132.046 
-0.000130619      10.7005     -123.719 
4.70432e-05      3.81199     -65.1855 
-8.77751e-05      4.32776     -23.1242 
-4.43089e-05      5.99897      173.493 
-0.000100330      8.03880      161.428 
-6.37933e-05      5.31949     -102.158 
-0.000116649      13.1560     -131.981 
-6.53347e-05      3.90047     -154.485 
6.39978e-05      9.21576     -57.5871 
4.47028e-05      6.27660      157.522 
0.000139447      5.18861     -3.31634 
4.33301e-05      10.5462     -142.086 
6.37481e-05      5.50165     -88.7495 
0.000207132      9.80633     -29.4387 
9.20225e-05      9.81094     -74.6319 
6.28726e-05      9.40722      21.7131 
0.000113285      9.20496      154.381 
-7.74864e-05      5.80017      149.543 
-0.000176814      13.6480     -134.345 
0.000162623      10.9924      114.282 
0.000106567      9.77886     -111.476 
0.000120957      3.52588     -118.458 
-0.000139102      11.1304      58.5957 
7.48034e-05      10.3571      57.1401 
5.72030e-05      7.38770     -70.8786 
3.94888e-05      5.68820     -116.295 
-0.000114158      9.45451      69.5701 
4.01680e-05      5.18978     -3.53138 
9.16706e-05      8.12283      66.3406 
7.51485e-05      6.28438      157.351 
-8.93859e-05      8.10459     -19.9097 
3.79577e-05      7.33101     -160.725 
7.13609e-05      6.37829     -101.943 
8.80882e-05      9.50023     -163.739 
3.66892e-05      6.53497      114.208 
-1.93542e-05      8.23487      161.303 
-0.000120060      11.1829      25.4199 
0.000217440      7.04934      177.071 
-0.000104458      10.7299      145.096 
-1.93244e-05      9.53883     -102.840 
0.000134814      10.1479      38.5182 
-7.30610e-05      11.9848      127.406 
0.000202466      9.39974      21.5984 
-0.000111377      2.43887      149.450 
6.97824e-05      11.4165     -39.0992 
-0.000153870      10.6893     -123.629 
8.95769e-05      5.87272     -142.189 
-3.53837e-05      7.18473     -135.901 
5.30321e-05      6.71528      29.2374 
-3.40711e-05      5.81764      149.645 
-1.82655e-05      4.16762      18.1707 
0.000112677      10.6303      114.924 
-6.75245e-05      11.9007      138.407 
-0.000264811      9.53451     -102.726 
-1.81367e-05      7.57182      146.312 
-3.47181e-05      4.30914     -23.2300 
-0.000301026      10.6168     -139.891 
3.52334e-05      3.83714     -157.316 
0.000175985      10.3141      164.942 
0.000370141      12.1483     -44.3994 
1.78221e-05      3.81088     -64.5046 
5.04632e-05      13.6403     -43.0985 
3.50374e-05      7.85197     -8.78987 
-1.76613e-05      5.94606     -156.198 
-0.000286615      13.6335     -134.405 
1.74877e-05      12.0826     -138.288 
-7.60372e-05      12.7281      45.5088 
-1.73952e-05      2.80258     -66.0017 
1.72886e-05      10.6388      115.023 
4.90520e-05      10.4994      28.8108 
-0.000154990      10.3874     -106.097 
-3.27139e-05      7.49850     -111.430 
-1.69877e-05      7.55109      110.785 
-0.000150335      11.5590      120.694 
-1.69025e-05      5.91966     -156.291 
6.30847e-05      8.67923     -47.7087 
-0.000155448      10.9678     -66.0041 
3.27219e-05      8.64661     -107.641 
-0.000389377      11.9967      127.480 
6.24118e-05      12.0016     -35.9162 
-1.66560e-05      9.40532     -114.768 
-3.20468e-05      8.48022     -37.1386 
1.65566e-05      11.4977      118.125 
-0.000101913      13.4111     -133.551 
0.000119047      11.8995     -32.9966 
-6.92557e-05      5.30424      116.663 
-7.48693e-05      9.46134      69.4594 
-1.64416e-05      2.81088     -65.6244 
-0.000252587      5.90112     -156.212 
1.62693e-05      13.1046      138.403 
1.61000e-05      3.69096      29.9009 
3.04125e-05      7.23105      141.514 
-5.93555e-05      7.54419      110.647 
-3.08341e-05      6.25197      26.8111 
1.58317e-05      8.23826      145.382 
3.11812e-05      12.1813      146.520 
1.57375e-05      7.39395     -71.2212 
-4.56140e-05      12.6302      134.165 
-4.39254e-05      8.75770      25.5682 
2.48691e-05      10.3466      57.2308 
2.93615e-05      11.2088     -64.3030 
4.41340e-05      7.83269     -8.81168 
-6.34796e-05      5.93893      67.8423 
2.99942e-05      12.0685      43.3195 
-1.53479e-05      11.5171     -122.808 
-4.25982e-05      10.3263      156.365 
6.86601e-05      8.13098      66.2099 
-7.15642e-05      12.8130      131.203 
-0.000180349      8.46440      164.091 
6.75755e-05      10.9169     -123.341 
-6.43248e-05      12.9935      50.1826 
6.84878e-05      9.49421     -65.2154 
0.000208437      10.3289     -33.2294 
-1.51506e-05      5.61881      118.023 
4.18553e-05      11.3886     -39.0820 
1.50403e-05      6.72312      29.0024 
0.000247643      10.0750      79.9413 
4.24998e-05      12.1976      146.571 
2.78187e-05      6.54331      114.369 
2.80387e-05      5.20884     -3.30345 
2.89101e-05      13.0895      138.344 
0.000102390      9.48627     -163.592 
0.000113885      11.2726      59.9788 
1.48531e-05      7.18501     -124.795 
-1.48354e-05      5.37769      125.464 
-0.000163193      11.9142      138.334 
-6.31218e-05      10.7019     -59.0721 
9.60904e-05      11.7924      58.7355 
4.15900e-05      8.06000      179.717 
-2.83605e-05      4.29122     -23.3328 
1.46238e-05      3.67406      30.0526 
-1.46440e-05      11.5341     -122.753 
4.07954e-05      10.2206     -90.4501 
0.000148379      12.3301      140.395 
-1.45785e-05      2.79244     -65.4528 
2.77263e-05      8.19464      121.322 
5.29153e-05      10.4921      28.9591 
0.000125361      12.1869      146.648 
-9.12205e-05      9.96569      88.0453 
2.71565e-05      10.3610     -171.227 
4.14655e-05      9.78599      148.454 
8.43994e-05      9.93891      95.0809 
1.42919e-05      5.84888      167.959 
7.82950e-05      11.8643      130.213 
-0.000349237      12.8220      132.851 
8.94556e-05      9.89857     -93.4769 
0.000113913      8.00530      12.9954 
0.000428970      11.9635     -51.7881 
-6.71783e-05      12.5036      133.962 
-5.14832e-05      11.2005      25.3770 
-2.57240e-05      10.7466      145.158 
2.71438e-05      7.37524     -160.678 
1.40845e-05      9.77540      148.555 
0.000122914      12.0180     -35.8596 
2.69967e-05      7.19659     -124.928 
7.56846e-05      10.1327      38.5869 
0.000148049      13.8885      45.6983 
-5.08842e-05      11.1275     -123.118 
-5.11969e-05      3.13205      106.694 
1.38192e-05      11.5301     -62.6345 
2.64227e-05      8.79964      140.811 
5.10063e-05      13.7379      41.9314 
8.53679e-05      2.10546     -38.8225 
-2.56608e-05      11.5447     -122.835 
-1.34447e-05      7.19930     -136.014 
1.34565e-05      8.66561     -47.8077 
-1.34273e-05      6.22543      26.7257 
2.53386e-05      9.23287     -57.6545 
-1.33762e-05      10.8285      114.674 
7.27438e-05      12.3458      140.455 
3.81711e-05      11.8825     -33.0498 
3.68972e-05      10.7044     -52.7429 
-1.32388e-05      6.62019     -90.5196 
-8.18047e-05      5.61348      34.2572 
-0.000121992      11.5422     -121.321 
-3.66643e-05      5.38947      125.640 
1.30924e-05      10.0070     -166.240 
-1.31054e-05      10.9879      143.212 
9.29491e-05      9.80326      148.516 
-9.71347e-05      8.74930      25.4530 
-2.50809e-05      10.9446      38.5475 
3.62375e-05      9.78629     -111.586 
-2.48499e-05      7.53707      110.503 
2.47141e-05      9.79269      148.617 
9.18680e-05      7.86498     -128.908 
2.43778e-05      8.66650     -47.9936 
5.92784e-05      8.71839     -5.39802 
-9.66172e-05      10.8107      114.717 
1.26693e-05      11.8026     -31.3455 
5.71789e-05      7.16799     -81.0080 
0.000146010      7.69762      140.268 
5.77456e-05      11.8440     -41.5790 
-2.43724e-05      12.7844      131.195 
-3.62445e-05      6.94838      6.77888 
-8.06961e-05      11.8384     -51.3096 
-8.78041e-05      9.55848      57.0410 
9.75952e-05      10.6994      111.722 
-3.51624e-05      9.85854      120.207 
2.39651e-05      10.3640     -171.120 
-3.44648e-05      11.9102      139.973 
-0.000254328      12.5450     -135.710 
-0.000195883      13.4245     -133.612 
0.000176874      13.8341     -46.1714 
6.83751e-05      11.0108      114.238 
-1.23246e-05      12.7144      45.5715 
-1.22835e-05      5.59736      34.3697 
-2.37840e-05      9.46846      69.3446 
-1.22323e-05      12.6444      134.231 
-1.22261e-05      6.20734      26.8098 
-0.000125621      13.9949     -132.973 
-0.000193722      10.6724     -123.689 
1.21403e-05      7.40083     -160.588 
-3.48808e-05      2.45570      149.682 
-6.68138e-05      12.4901      133.897 
1.21343e-05      8.52570      77.3974 
-3.27495e-05      9.63512     -123.655 
1.20433e-05      12.0057     -55.3832 
3.36250e-05      5.85298      167.772 
-5.66118e-05      7.80004      27.1542 
-6.57121e-05      10.1411      130.601 
-0.000163217      11.1091     -63.0178 
-2.32993e-05      8.44818     -129.909 
5.18599e-05      6.15466      160.447 
2.23027e-05      13.6122     -43.0968 
-5.27946e-05      13.0216      41.4490 
0.000214837      11.9265     -33.0242 
-1.17963e-05      9.44755      45.6886 
-1.17774e-05      11.0917     -62.9721 
-3.17836e-05      10.0735     -33.5030 
-5.37177e-05      8.91461     -109.937 
4.32943e-05      9.41116      21.4383 
-2.25203e-05      8.45019     -129.718 
-2.29848e-05      4.44456     -177.416 
1.15926e-05      10.5092      28.9076 
-0.000104994      13.9586     -135.059 
-1.15490e-05      14.2699     -44.6016 
1.14981e-05      10.0266     -166.267 
-0.000274852      10.8416     -25.8077 
7.93480e-05      12.3968      42.9101 
-8.51619e-05      11.5469     -133.033 
3.31358e-05      9.79414      21.0637 
-0.000118489      10.7325      18.4692 
-0.000108330      9.72550     -103.920 
-3.77933e-05      8.45529      25.0504 
-0.000117110      9.98527      88.1654 
-7.03035e-05      10.6623      49.1065 
-7.08183e-05      6.95071      6.93858 
0.000140661      10.3336      164.971 
0.000119736      12.1403     -50.1455 
0.000162593      10.2273      81.6808 
-3.32428e-05      10.8245      109.875 
-3.25448e-05      8.85975     -16.3920 
9.44342e-05      11.8909      147.779 
3.16186e-05      9.70430     -10.5688 
3.11937e-05      10.3505      39.9061 
-2.16865e-05      10.7908      145.190 
-8.36137e-05      12.3629      40.9317 
4.11916e-05      10.8782     -123.224 
7.87512e-05      13.7465     -44.7634 
-2.16003e-05      9.43393      45.7734 
5.04082e-05      9.87834     -93.4840 
-1.09942e-05      12.3782      40.8703 
2.11374e-05      12.2776     -136.189 
1.09682e-05      7.38745     -71.3700 
-1.09751e-05      10.9604      38.4815 
8.77922e-05      11.5545     -135.210 
0.000313697      13.1392      50.3712 
-6.21358e-05      13.6488     -135.891 
-6.90451e-05      12.4347      46.4989 
9.69250e-05      12.6559      137.562 
-1.09323e-05      11.1555     -123.148 
1.08992e-05      8.09330      35.8520 
5.91876e-05      11.9991      58.2183 
1.08575e-05      7.24634      141.610 
-6.86316e-05      11.9562     -140.159 
3.09050e-05      12.5103     -37.9862 
1.08273e-05      10.8405      26.2830 
3.02451e-05      12.4452     -49.7592 
1.08048e-05      13.3141     -138.166 
1.07917e-05      13.0582      138.103 
2.95380e-05      11.9080      147.831 
0.000218348      12.0344     -35.8031 
0.000186883      12.5758     -128.218 
-9.27683e-05      11.5689      120.777 
-9.64743e-05      14.2838     -44.5466 
2.12028e-05      12.9600      39.3634 
4.94571e-05      5.84196      49.1616 
-0.000221305      13.0233      41.3279 
-4.95813e-05      10.8314      109.975 
-1.06968e-05      10.2983      38.8508 
-4.02082e-05      10.2510      105.040 
2.07287e-05      12.4089     -36.1499 
0.000135060      9.38635     -72.2618 
0.000114884      10.6830      107.656 
2.05168e-05      12.0168     -55.3067 
-1.06530e-05      9.91825      46.7168 
6.06823e-05      7.94460     -105.925 
-5.03393e-05      10.3164      169.387 
-8.56521e-05      8.92154     -110.060 
8.47736e-05      8.09791      35.6519 
-1.05562e-05      9.49458      69.2733 
-8.83790e-05      12.3326     -44.3418 
-1.04982e-05      7.53026      110.364 
6.96829e-05      13.1152      133.333 
-1.96443e-05      5.60252      34.0923 
1.04707e-05      10.1395     -130.760 
-8.59695e-05      10.6650     -20.6447 
-1.04214e-05      4.27262     -23.4404 
3.90061e-05      10.1356      96.0048 
-3.69716e-05      10.3818     -105.989 
-1.03425e-05      12.2004     -50.9863 
-0.000121000      11.6794      31.4852 
3.91282e-05      12.0593     -139.575 
-1.03395e-05      9.93215      46.6317 
-6.52243e-05      12.9955      50.3063 
7.79017e-05      12.9785      39.1855 
-4.30272e-05      11.1445     -123.061 
4.80629e-05      8.73856     -5.38552 
0.000104524      11.5492     -130.365 
-1.02257e-05      9.50236      15.8801 
6.83013e-05      11.2794      60.1175 
-2.94718e-05      13.5354      134.221 
2.98389e-05      7.80466     -175.445 
-1.01829e-05      7.81740      27.0889 
2.95770e-05      10.3774      32.0076 
-1.01843e-05      8.46315     -129.824 
1.01617e-05      8.09466      147.412 
-2.97569e-05      10.3008      38.6950 
-2.82425e-05      9.12049      148.542 
1.92785e-05      10.8586      26.2357 
4.78720e-05      8.05305     -76.7925 
-0.000114712      10.8074      145.252 
-6.24984e-05      5.92017      67.7684 
1.00796e-05      10.1875      153.786 
-8.08293e-05      11.9407     -140.096 
2.92443e-05      9.81305      21.0212 
-0.000137446      13.1831     -132.112 
1.95398e-05      6.68252      154.278 
-7.54027e-05      11.6277      122.923 
-2.81923e-05      11.8947      139.911 
-1.94183e-05      9.41981      45.8617 
3.57249e-05      11.6443      53.6618 
-5.55909e-05      9.91860      46.8792 
-5.64058e-05      7.57779      129.108 
-9.88641e-06      9.50150      69.1633 
1.85888e-05      10.0510     -166.187 
5.30658e-05      5.13084      101.926 
-4.60462e-05      9.54019     0.599391 
2.81017e-05      13.0437      138.045 
-1.89956e-05      4.41357      150.995 
-4.19667e-05      8.43694      25.1086 
-3.66699e-05      8.87919     -16.3551 
-0.000114133      11.1409      58.5068 
-0.000294752      12.1647     -55.7875 
-0.000217513      11.5607     -133.106 
-0.000105992      13.1430     -48.0826 
2.75034e-05      11.5402     -135.282 
8.66903e-05      8.18213      100.708 
1.86943e-05      10.0942      79.9607 
3.75358e-05      12.4253     -36.0948 
-9.67363e-06      7.06530     -6.50080 
4.54324e-05      9.94066      95.1929 
-0.000147623      13.4385     -133.674 
7.51199e-05      11.8424     -41.7122 
-2.79849e-05      8.64220     -33.5797 
2.79398e-05      12.3285     -126.424 
1.89430e-05      9.74587     -66.5378 
7.12259e-05      10.4649      63.1906 
-3.66082e-05      10.8049     -63.1520 
3.60168e-05      9.82054      148.577 
1.87525e-05      10.0275      155.992 
-4.49004e-05      7.86429     -43.9678 
5.35605e-05      9.75881      80.3233 
0.000125419      8.47693      83.3613 
9.53349e-06      10.1527     -130.846 
-1.85593e-05      9.22122      135.528 
-3.61349e-05      10.3364      169.408 
-6.72135e-05      13.0810     -49.5880 
-3.66261e-05      10.4641     -143.391 
-0.000220423      9.73603      103.178 
0.000143882      7.82486     -175.457 
-9.56542e-05      10.1302     -87.3974 
3.53148e-05      6.59942     -148.379 
1.68169e-05      10.3667      31.9126 
1.82636e-05      8.97404     -175.016 
-9.28218e-06      9.52185      15.8468 
3.52089e-05      6.70010      154.350 
-2.67442e-05      10.7313     -32.2109 
5.34678e-05      12.9814      39.0596 
4.27499e-05      9.85500     -70.6848 
-3.51743e-05      7.08543     -6.48225 
-4.35021e-05      10.6470      49.0352 
-5.19823e-05      10.2087      87.6409 
0.000117323      13.1286      133.395 
0.000344004      10.4258     -11.3949 
2.66498e-05      7.87772     -129.023 
-6.79880e-05      8.48317      164.127 
-0.000205723      12.9474     -50.0125 
3.54889e-05      11.4398     -148.366 
9.13331e-06      9.39231      21.4835 
0.000132653      9.75365     -66.4327 
-9.12405e-06      9.01248     -97.2658 
-8.53854e-05      9.53007     -102.607 
1.80207e-05      9.72422     -10.5469 
9.13526e-06      9.59853      95.1401 
-9.07783e-06      6.36134     -154.886 
8.36153e-05      10.6163     -160.064 
2.69731e-05      13.8940     -136.749 
0.000124665      11.4509     -27.6851 
-3.49804e-05      9.01443      38.2427 
-0.000203511      14.0088     -133.033 
4.30187e-05      10.1545      158.993 
9.01330e-06      7.17107     -80.8541 
-8.98312e-06      12.3810      46.8984 
-0.000116109      6.04106     -175.255 
8.95700e-06      8.24855      169.098 
6.48728e-05      10.3839      31.8535 
0.000191616      13.5503      44.0442 
-0.000196348      10.5159     -110.022 
3.50722e-05      12.6708      137.623 
3.37907e-05      9.06800      159.607 
-1.76120e-05      11.7164     -129.042 
-2.62011e-05      11.8577      136.916 
-8.89349e-06      10.9781     -66.1437 
-4.31959e-05      13.4392     -133.552 
8.88500e-06      10.3459      144.282 
4.33917e-05      10.4319     -77.3773 
8.88353e-06      13.5649      43.9847 
-5.12036e-05      11.6387      123.007 
-9.15631e-05      8.46906     -40.5011 
8.84379e-06      2.09617     -74.5110 
0.000442888      13.8801     -136.809 
6.79146e-05      13.9022      45.6407 
2.57430e-05      13.7746     -44.7661 
8.83080e-06      7.03013      176.904 
-8.84851e-06      9.03516     -97.3770 
3.32221e-05      8.22939      169.072 
-0.000291744      9.98593      88.0493 
-1.73959e-05      9.99113     -153.745 
-5.76521e-05      10.6197     -140.042 
-3.40226e-05      11.1180     -62.9282 
0.000209233      8.99423     -175.027 
-8.73427e-06      9.02005     -151.672 
-4.19057e-05      10.4804     -143.457 
-2.58803e-05      9.41281     -98.0610 
5.81380e-05      13.1354      130.554 
4.94554e-05      10.8768      26.1885 
-4.14790e-05      11.4002      124.276 
-2.54334e-05      11.7324      124.230 
-8.63303e-06      9.40624      45.9470 
-4.24902e-05      10.3555      169.428 
0.000140192      13.3789      135.364 
0.000116211      12.9972      39.0034 
-8.60245e-06      7.45675      133.149 
8.16160e-05      10.3865     -113.012 
8.86119e-05      8.02872      13.0998 
-0.000106629      10.9018      28.7279 
-2.52353e-05      12.2032     -137.657 
-1.68658e-05      11.0666      56.7970 
-4.11451e-05      8.08949      24.8535 
2.52831e-05      11.5390     -130.149 
8.54723e-06      12.6689      128.461 
-0.000137188      13.3437      138.280 
-6.50635e-05      10.7518      18.4349 
0.000192142      11.7122      29.2354 
3.30678e-05      10.5697     -104.354 
-8.52100e-06      9.10047      48.9216 
4.12756e-05      4.81697      103.688 
8.51675e-06      10.1154      96.0168 
1.69116e-05      12.9258      134.624 
-3.29950e-05      9.74517     -103.892 
8.51121e-06      13.3932      135.302 
3.25982e-05      6.22459     -92.2108 
-0.000185373      10.5033      16.7118 
-2.51220e-05      7.68872      169.507 
-3.28371e-05      11.9417      138.327 
8.46835e-06      11.4989      58.0814 
-0.000151721      8.99853      38.3225 
-8.44244e-06      7.87835     -43.8693 
-1.64971e-05     0.858831     -24.7961 
-3.30636e-05      9.01045     -151.785 
3.33335e-05      9.72793     -168.137 
-6.47560e-05      8.90251     -110.104 
-3.29458e-05      9.41567     -98.1831 
4.11968e-05      11.4925      57.9423 
-2.45691e-05      9.81268     -146.472 
3.23668e-05      11.3012      44.0692 
8.36196e-06      8.75873     -5.37308 
-1.64879e-05      11.6821     -44.3051 
5.69760e-05      12.6690      137.496 
-3.25591e-05      8.94175      66.8172 
0.000122446      7.68262      140.175 
-4.04464e-05      11.8580      149.716 
0.000150566      10.4276     -77.4819 
3.23906e-05      9.76211      80.2104 
-1.61084e-05      10.7148     -32.2665 
-9.69892e-05      10.3755      169.448 
-0.000158230      7.70791      169.534 
-6.37748e-05      14.2982     -44.4897 
2.43573e-05      11.4332     -148.226 
2.42553e-05      10.6769      107.552 
5.56592e-05      12.6530      128.518 
-7.15364e-05      10.7684      126.998 
-6.40972e-05      11.5793      120.863 
1.64081e-05      8.11377      35.5716 
8.28128e-06      11.2867      44.1407 
6.36287e-05      13.7890     -44.7068 
8.93707e-05      12.1429     -50.2801 
-1.63604e-05      10.6833     -20.6079 
-8.73580e-05      13.9443     -135.000 
-7.14966e-05      11.6621      31.5372 
1.61188e-05      9.88053     -90.3481 
8.25519e-06      8.04845     -76.9329 
-4.79176e-05      11.7106      44.1692 
2.41697e-05      11.2895      60.0284 
7.99269e-05      11.5211     -129.577 
4.77244e-05      10.4558      63.2897 
-4.02322e-05      11.6497      123.090 
2.44347e-05      13.5784      44.0439 
-2.44060e-05      9.01960     -169.909 
-4.00337e-05      9.06723     -133.836 
6.42925e-05      13.9163      45.5811 
2.41161e-05      9.74702     -168.161 
1.59707e-05      12.9400      134.688 
8.15983e-06      11.9509     -135.611 
-6.39561e-05      9.88913     -53.8023 
-3.20310e-05      11.7215      124.151 
2.39348e-05      11.9188      147.749 
5.51616e-05      11.9526     -52.4761 
8.12910e-06      13.7603     -44.7062 
8.11669e-06      10.5818      130.557 
6.30971e-05      10.1662      159.141 
-5.53123e-05      12.2182     -137.721 
3.93025e-05      9.75585      173.880 
1.60415e-05      9.86027     -90.3488 
-0.000117762      11.1863     -24.7325 
-1.60297e-05      11.0721      56.5695 
5.53121e-05      13.5795     -46.1933 
4.00521e-05      9.77102     -168.069 
-9.43598e-05      9.84641     -87.9036 
0.000134026      13.0154      38.8239 
8.04817e-06      4.35815     -12.1864 
-3.96441e-05      9.54472     -102.463 
7.07795e-05      11.5032      57.8567 
-1.59552e-05      7.36861      103.660 
-8.01071e-06      12.0899     -144.154 
-6.27322e-05      10.2095      87.5315 
-7.99717e-06      11.0958      67.0868 
-4.71332e-05      11.2585     -133.993 
-5.53890e-05      9.03603     -170.058 
3.16635e-05      8.11851      35.3721 
8.00457e-06      8.55168      77.8480 
-7.85632e-05      13.1294     -48.1484 
3.94064e-05      10.5686      130.473 
-3.92804e-05      8.10720      24.7955 
4.72968e-05      10.3090      165.046 
-7.98334e-06      13.1156      141.192 
8.61992e-05      14.1136      44.8858 
-3.96416e-05      11.6546      123.308 
-3.14565e-05      8.35512      108.565 
0.000117675      13.5639      44.1034 
7.06829e-05      11.5367     -129.513 
3.93990e-05      7.11644     -43.2910 
-4.74522e-05      13.0998      141.136 
-4.71914e-05      9.08128     -133.929 
-0.000109506      10.8743      28.6856 
-7.94000e-06      12.5595     -135.775 
-3.15908e-05      10.3991      169.359 
-2.36388e-05      9.02831     -151.846 
0.000141042      13.3645      135.303 
3.92972e-05      9.81792      39.4641 
2.36172e-05      10.6281     -160.199 
-2.36022e-05      12.6693      143.924 
-7.92623e-06      11.7713     -29.7453 
-1.57285e-05      9.74050     -103.780 
-7.03580e-05      11.9444      31.7200 
-0.000101582      13.2772     -140.196 
5.47494e-05      5.51117     -115.354 
8.60405e-05      13.7455     -47.5355 
5.47667e-05      12.6541      137.434 
-3.91630e-05      12.2051     -137.788 
-7.89130e-06      6.38885     -155.202 
4.69886e-05      10.1948     -111.884 
4.70110e-05      9.79084     -168.093 
5.42373e-05      8.79351     -115.749 
-6.25242e-05      12.6864     -41.1005 
-3.12376e-05      11.8719      136.980 
3.13871e-05      13.5358      44.1038 
-7.88445e-06      7.52788     -169.437 
-1.56785e-05      11.0833      56.4821 
4.68971e-05      10.5746     -104.456 
7.80290e-05      12.5070     -46.6848 
2.34799e-05      10.5139      121.544 
7.86333e-06      5.48317      15.6567 
-2.34280e-05      13.5205     -134.402 
7.86440e-06      12.9757      39.3067 
-2.34661e-05      8.93380      66.9366 
2.34646e-05      13.0342      38.6474 
7.85158e-06      12.5883     -128.290 
8.58472e-05      11.4600     -27.7715 
3.89964e-05      11.6840     -122.631 
6.24507e-05      13.9305      45.5216 
-7.85042e-06      7.52419     -169.589 
-6.23842e-05      9.96640      87.9289 
1.56297e-05      11.6963     -47.9098 
7.84798e-06      7.84431     -175.468 
-7.83417e-06      10.2628     -20.0593 
-0.000109261      13.6622     -134.406 
0.000117005      10.2401     -179.551 
-4.68856e-05      10.7261     -18.3665 
3.90197e-05      12.3140     -146.259 
6.23356e-05      9.47512     -106.177 
-0.000123589      9.41847     -98.3005 
2.33966e-05      10.4169     -58.9025 
-4.67598e-05      13.0678     -49.6556 
-0.000101389      13.0718      141.147 
2.33956e-05      10.2080      81.6650 
7.83325e-06      5.13491      102.139 
-5.45557e-05      10.4183      169.379 
-4.67614e-05      11.6657      123.392 
-6.23842e-05      9.87718     -53.8971 
4.67663e-05      13.1425      133.459 
2.34032e-05      11.2970      60.1687 
-3.89626e-05      6.03948     -175.439 
-7.79809e-06      11.5277      119.634 
-6.23626e-05      12.0090      127.557 
-4.67305e-05      10.7710      18.4009 
-2.33845e-05      11.8890      121.660 
-7.01566e-05      9.01607     -170.036 
-3.12445e-05      10.3954      169.469 
-6.23057e-05      10.5227      16.6801 
2.33740e-05      9.86041     -90.4666 
3.12033e-05      13.5218      44.1613 
-7.80799e-06      10.8189      114.811 
4.67568e-05      13.0532      38.4669 
-3.89365e-05      12.8369      132.790 
-7.79224e-06      11.5626      120.913 
1.55775e-05      12.2038      146.700 
1.55881e-05      13.1144     -136.546 
2.33686e-05      7.84594     -175.321 
3.89097e-05      10.7810     -54.8962 
2.33534e-05      13.5072      44.2212 
3.89097e-05      10.5241      121.634 
1.55749e-05      8.13504      35.2895 
-1.55763e-05      9.21884      39.6300 
3.89093e-05      10.2894      165.017 
-1.55435e-05      12.6997     -41.1694 
-6.22466e-05      10.7454     -18.3325 
-1.55626e-05      9.54053     -102.348 
-3.11500e-05      11.5730      120.999 
1.55843e-05      10.9478     -63.2927 
-1.55721e-05      9.65418      67.2078 
7.78489e-06      9.80506      39.3727 
-7.80168e-06      10.3709      156.351 
7.77796e-06      12.9942      39.1290 
-7.78198e-06      7.50427     -169.561 
2.33569e-05      11.2873      60.2546 
-3.10891e-05      13.0386      41.2691 
7.77287e-06      13.3788      135.241 
7.80013e-06      6.03615      52.6785 
7.78302e-06      7.13120     -43.1793 
2.33728e-05      13.4927      44.2812 
7.79423e-06      9.01366     -175.038 
1.55057e-05      9.85855      64.5292 
1.55344e-05      13.1286     -136.605 
7.78485e-06      7.15107     -80.8283 
-7.78060e-06      9.79580     -146.406 
1.55724e-05      9.82073      39.2977 
-7.79992e-06      10.3954      100.531 
2.33569e-05      13.4788      44.3391 
-1.55697e-05      9.53732      18.5861 
-2.33455e-05      14.0226     -133.094 
-1.55856e-05      10.3377      172.106 
-7.76757e-06      10.0540     -154.045 
-3.11723e-05      10.4146      169.488 
-7.77453e-06      12.8718     -133.866 
1.55330e-05      12.6678      137.367 
-7.79465e-06      11.6928      123.772 
1.55608e-05      13.1419      50.4956 
-7.77696e-06      9.87491     -102.517 
7.77635e-06      10.2682      9.75694 
7.74862e-06      10.3802      31.6080 
7.76184e-06      14.0993      44.8275 
7.78988e-06      10.2024     -111.990 
-1.55503e-05      12.3327     -142.777 
-1.55956e-05      11.3260      154.701 
-1.55532e-05      9.23388      39.5528 
-7.75696e-06      10.2326     -65.8916 
7.79603e-06      10.4270     -58.8107 
7.78742e-06      9.96660     -112.913 
-7.78954e-06      6.01928     -175.424 
7.76595e-06      10.0849     -69.0837 
7.77149e-06      13.9442      45.4644 
7.78881e-06      12.3032     -146.334 
7.78747e-06      13.8733     -137.569 
-7.78647e-06      11.5746     -133.179 
7.78354e-06      12.5603      139.002 
-7.79855e-06      8.44673      24.9259 
7.79587e-06      9.86059     -90.5799 
0.000129888      11.6377     -61.0121 
6.11994e-05      12.5769     -136.482 
6.02316e-05      11.1492      129.686 
5.15831e-05      10.9325     -135.520 
-6.88805e-05      12.9127     -38.9640 
-6.55165e-05      11.2548      25.2461 
-2.54236e-05      9.94556      46.5500 
4.77248e-05      10.9320      135.075 
5.56400e-05      10.2780      60.8918 
2.44717e-05      12.3165     -126.348 
4.72907e-05      12.2923     -136.254 
-3.99401e-05      13.1166      40.0523 
1.61925e-05      12.2877     -36.7950 
-3.13657e-05      7.45588      133.369 
-1.60153e-05      10.4947      15.3618 
1.61056e-05      12.7080      142.932 
1.57904e-05      10.9180     -135.446 
8.11685e-06      11.4311      62.9404 
8.08917e-06      8.12378      35.1772 
-3.14301e-05      9.20713      135.264 
2.37185e-05      9.08019      141.439 
1.55452e-05      9.60022      89.4044 
2.33429e-05      5.49287     -115.445 
-7.92199e-06      10.2837      13.9551 
-1.54693e-05      10.4209      26.0743 
7.85578e-06      7.75178      35.1270 
-3.09189e-05      14.0607      46.2693 
-7.81292e-06      13.8452      44.7080 
-2.30912e-05      6.96563      65.9366 
4.03402e-05      13.1265      47.9032 
-7.79180e-06      13.4354     -131.257 
2.36516e-05      12.3040     -36.7385 
-2.36421e-05      9.04259      91.3932 
-8.01177e-06      11.2371      25.2885 
-1.57033e-05      8.76754     -128.516 
-1.56852e-05      13.4226     -131.194 
-1.55755e-05      12.8970     -39.0206 
2.31000e-05      8.20750      50.1408 
7.81994e-06      11.4400      62.8534 
7.80608e-06      12.3017     -125.939 
7.74565e-06      2.27898      10.6254 
7.72140e-06      10.4375     -58.7155 
7.63834e-06      11.3845      142.566 
1.50888e-05      9.38043     -72.3753 
7.60592e-06      12.3087     -126.145 
-7.58809e-06      9.82389     -146.373 
-7.55305e-06      10.2775     -52.1922 
-7.52504e-06      13.1687     -132.168 
-7.53101e-06      5.11262     -14.0322 
7.53273e-06      13.3889      42.6992 
7.50740e-06      12.5335     -136.422 
7.51634e-06      13.1630      138.510 
! Tentative model.
! Flux (Jy) Radius (mas)  Theta (deg)  Major FWHM (mas)  Axial ratio   Phi (deg) T \
! Freq (Hz)     SpecIndex
-8.45861e-06      13.1683     -132.168 
