! Center RA: 12 21 31.69052,  Dec: +28 13 58.50011 (2000.0)
! Established model.
! Flux (Jy) Radius (mas)  Theta (deg)  Major FWHM (mas)  Axial ratio   Phi (deg) T \
! Freq (Hz)     SpecIndex
 0.0633252      0.00000      0.00000 
 0.0798914    0.0202604      90.0000 
 0.0635909    0.0202604      180.000 
 0.0185285     0.107434      68.2729 
 0.0306276    0.0286526     -135.000 
 0.0186527     0.134233      63.4349 
0.00335020     0.152624      66.8384 
0.00540096     0.223431      79.7468 
0.00621646     0.126477      71.6725 
 0.0283361     0.240977      85.1771 
0.00891244     0.260423      85.5380 
0.00468750     0.116465      58.9729 
 0.0101951    0.0202604     -90.0000 
0.00539255     0.259634      90.0000 
0.00198229     0.220795      84.7351 
0.000369143    0.0896014      63.6495 
0.00279499    0.0286526      45.0000 
0.000567964    0.0202604      0.00000 
0.00231492     0.279894      90.0000 
0.00400874     0.145849      74.1761 
0.000730113     0.300155      90.0000 
0.000507915     0.320306      93.6266 
0.00253840     0.340529      93.4109 
0.000738613     0.360755      93.2195 
0.00110789     0.381773      95.9795 
0.000267794     0.380236      93.0544 
0.000265074     0.300838      93.8616 
0.00127429     0.401929      95.6787 
0.000517160     0.280627      94.1402 
0.000506672    0.0446338      26.9958 
0.000251844     0.260423      94.4620 
0.00398719    0.0397705      0.00000 
0.00452416     0.243395      99.4042 
0.00273790     0.422095      95.4065 
0.00122265     0.424483      98.1301 
0.000207893     0.164706      76.0271 
0.00375479    0.0286526     -45.0000 
0.00649864     0.443806      97.7739 
0.00141842    0.0446338     -26.9958 
0.00303566     0.247514      104.036 
0.00145894     0.161670      60.2221 
0.00239018    0.0446338     -63.0042 
0.00139428     0.144435      56.2274 
0.00190639    0.0397705     -90.0000 
0.000235151     0.461703      94.9415 
0.00169840     0.463888      97.4354 
0.000332273     0.342244      83.3269 
0.00106196     0.253192      108.489 
0.000743338     0.345185      79.9848 
0.00230680    0.0633577     -108.650 
0.000933885     0.141141      45.0000 
0.00130567     0.481892      94.7340 
0.000430250     0.786103      104.766 
0.000992694     0.483985      97.1250 
0.000791175     0.810060      105.749 
0.000313941     0.128090      38.8171 
0.000757711     0.349279      76.7101 
0.000238670     0.260038      112.569 
0.00100895    0.0600310     -90.0000 
7.60455e-05     0.737890      102.510 
0.000628712     0.241454      114.414 
0.000660119     0.714035      101.334 
0.000357771     0.835176      106.709 
0.000139325     0.116465      31.0271 
0.000379370     0.156126      50.2649 
0.000399312     0.854601      106.319 
0.000380715     0.450910      102.787 
0.000436290     0.354273      73.6379 
0.00143623     0.690371      100.015 
0.000244577     0.134233      26.5651 
6.37231e-05     0.860287      107.566 
0.000180720     0.501338      94.5500 
0.000426718     0.873342      105.959 
0.000301593     0.250509      118.638 
5.82258e-05     0.892839      105.601 
0.000783194     0.907248      104.025 
5.74137e-05     0.437032      105.945 
0.000379074     0.921752      102.554 
0.000732232     0.624998      97.3810 
0.000834140     0.645096      97.1498 
0.000498991     0.278155      68.9736 
0.00155663     0.260038      67.4310 
0.000209177     0.647814      98.8622 
0.000534854     0.667840      98.5944 
0.000790903     0.561200      94.0638 
0.000799388     0.540658      92.1476 
0.000510439     0.520413      92.2312 
0.000223791     0.480248      90.0000 
5.66782e-05     0.887605      104.342 
0.000108254     0.234065      69.9384 
0.000148772     0.440193      87.3620 
5.22397e-05     0.215843      68.1616 
0.000196773     0.422095      84.5935 
0.000243643     0.189835      71.5651 
9.12030e-05     0.404436      81.4640 
0.000175671     0.170734      69.4145 
0.000206124     0.407936      78.6487 
0.000214534     0.926189      103.732 
0.000160534     0.278155      111.026 
0.000280478     0.941538      102.286 
0.000118318     0.178866      63.3275 
0.000467369    0.0720098     -123.524 
7.54114e-05     0.917698      106.434 
0.000420609     0.957327      100.843 
7.40738e-05     0.392593      75.2732 
0.000106671     0.304558      113.217 
0.000207913      3.35143      97.8888 
7.14325e-05     0.923634      107.640 
0.000231074     0.398226      72.4528 
3.50410e-05     0.323277      111.801 
0.000154737     0.718124      102.860 
3.46161e-05      3.37150      97.8416 
3.44436e-05      3.55427      100.043 
3.41803e-05     0.367749      112.431 
0.000255262      3.36879      97.5002 
0.000192586     0.910821      109.241 
0.000608706      3.57422      99.9864 
9.70405e-05     0.128090      51.1829 
0.000239825     0.386554      111.285 
6.24089e-05     0.304887      58.3833 
0.000325984     0.972963      99.4551 
6.32357e-05     0.100252     -126.784 
0.000576018     0.113549     -135.000 
5.93540e-05     0.113549      45.0000 
2.99391e-05      3.29777      98.7164 
0.000213589     0.917436      110.391 
0.000191264     0.417588      73.2909 
8.67029e-05      3.36630      97.1710 
5.78541e-05      3.27849      98.7681 
0.000134432     0.315980      55.2532 
8.14243e-05     0.936453      109.960 
5.57623e-05     0.976496      100.628 
0.000185565      3.26163      99.1741 
0.000995905      3.32268      87.5796 
0.000106537      3.36383      96.8286 
2.77000e-05     0.100252      36.7841 
2.71788e-05     0.394056      113.929 
2.67193e-05    0.0896014      26.3505 
0.000339236     0.411965      112.829 
0.000342985     0.996416      100.413 
5.19556e-05    0.0600310      0.00000 
2.58546e-05      3.38395      96.7878 
0.000193441      3.59086      99.6237 
2.51352e-05     0.354273     -73.6379 
4.83634e-05    0.0828082      14.1622 
0.000119042     0.423858      70.6669 
9.60843e-05      3.38162      96.4469 
0.00146157     0.373757     -74.5128 
0.000139263      3.24163      99.2312 
2.37797e-05     0.742542      104.036 
6.90408e-05     0.327950      52.3435 
6.93384e-05     0.581411      93.9223 
0.000216572     0.128090     -141.183 
0.000608095     0.924690      111.568 
0.000748934     0.753070      79.2611 
0.000464013      3.36149      96.4857 
0.000254153    0.0633577     -18.6495 
8.80273e-05      3.66931      99.4161 
0.000127201      2.92010      96.6849 
0.000174967     0.430710      68.2171 
0.000183921      1.01635      100.206 
0.000283881     0.420241      115.375 
0.000127605     0.312731      50.1592 
4.28197e-05      3.03191      100.640 
0.000162567     0.612215      38.3308 
0.000182159      3.23844      98.8774 
0.000316353      3.68930      99.3646 
2.06605e-05      3.01274      100.708 
8.48514e-05      3.01657      101.086 
0.000235389      2.91781      96.2897 
0.000515460      1.35358      108.957 
0.000966786      1.83068      83.7169 
1.94201e-05     0.571959      53.5360 
0.000112052      1.61051      104.379 
0.000232200      1.95010      100.039 
0.000103596     0.627636      37.2261 
0.000217574     0.144435     -146.227 
0.000221425      2.08353      93.3035 
7.04695e-05     0.278118      120.301 
0.000181524     0.588377      54.7087 
0.000855674      3.32356      87.2435 
0.000242808     0.438632      114.241 
8.81772e-05      2.99669      101.161 
0.000334609      1.03927      101.115 
0.000534469     0.576909      56.3513 
6.90620e-05      1.59089      104.561 
0.000112033     0.900464      36.8699 
1.69065e-05      2.82474      100.190 
0.000521864      1.59610      105.265 
3.19272e-05      2.80481      100.264 
0.000734588      3.34379      87.2602 
0.000127109      2.66791      104.763 
0.000116747      1.00348      4.58930 
0.000161803      2.89767      96.3336 
7.54477e-05     0.985074      5.81482 
0.000313347     0.447333      116.608 
4.59027e-05     0.260826      122.547 
6.11092e-05      3.70855      99.3156 
1.55720e-05     0.438632      65.7588 
0.000129919      2.31108      99.4562 
0.000311099     0.932329      112.726 
7.41660e-05      2.67314      105.183 
9.56042e-05      2.10270      92.7205 
0.000111860      3.25553      98.4831 
4.31297e-05     0.457182      66.8014 
8.62400e-05      4.55564      102.935 
0.000230541      4.02101      104.106 
6.94935e-05    0.0720098     -33.5245 
5.47228e-05     0.643885      36.1354 
0.000193416     0.161670     -150.222 
0.000254145      2.51176      110.021 
1.45679e-05     0.933756      99.8559 
0.000145798     0.910591      98.8646 
0.000315477      2.78858      100.748 
0.000118801      3.70532      99.0064 
0.000156188     0.297458      47.6583 
6.76796e-05      2.65973      105.714 
0.000151627     0.566331      57.9946 
5.20381e-05     0.271820      126.016 
1.39153e-05     0.776764      78.1256 
0.000124542     0.927787      37.1109 
0.000119163      2.26075      103.298 
0.000104237      3.35934      96.1550 
0.000451977      1.82858      84.3479 
0.000444018     0.781185      76.6712 
5.25721e-05      1.93015      100.143 
0.000172510      1.06991      20.7865 
0.000194365      4.55132      102.696 
0.000185040     0.756949      77.8100 
5.20821e-05      2.10187      92.1892 
1.30088e-05      2.34799      98.8241 
0.000182938      5.05973      107.717 
0.000268002      3.75324      106.410 
4.99432e-05      2.36427      98.2664 
0.000485725      1.37204      108.693 
0.000163752      2.89558      95.9499 
8.48760e-05      2.66508      106.118 
4.42526e-05    0.0720098     -56.4755 
8.26895e-05     0.360505     -70.5467 
0.000345384     0.465536      115.491 
7.46911e-05      3.25260      98.1301 
0.000357868      1.93382      100.734 
0.000247258      4.00710      104.455 
0.000117255     0.660356      35.0987 
0.000401097      3.62654      86.5242 
0.000462759      1.32947      77.8465 
0.000286542      2.38152      97.7139 
0.000161512      3.37738      95.7765 
8.40496e-05      3.00068      101.540 
0.000283974      3.92306      110.279 
0.000103318      2.27521      102.689 
0.000110702      4.24087      102.529 
0.000233510      2.76941      100.823 
0.000366115      5.05382      107.507 
7.30541e-05      3.72223      98.6496 
0.000112924     0.256296      128.581 
3.33335e-05      2.65136      106.660 
0.000151155      2.17997      89.4675 
0.000180331     0.459977     -34.3641 
0.000352009     0.178866     -153.327 
2.19434e-05      1.07726      21.7940 
0.000109191      3.82965      112.414 
0.000420917      2.65702      107.063 
0.000399084      1.04321      102.167 
0.000344820      2.51877      110.454 
0.000311566      4.23652      102.261 
0.000158090      1.08817      20.4219 
0.000113704      4.56239      102.143 
0.000164034      1.91392      100.847 
3.00633e-05     0.940038      113.823 
6.43940e-05      1.54189      92.9849 
1.97070e-05      2.72902      94.6210 
1.90207e-05     0.860287      72.4343 
3.44438e-05     0.447333      63.3920 
7.38028e-05     0.921540      114.332 
4.33430e-05      1.02293      4.50186 
0.000271372      2.72752      94.2125 
8.15779e-05      3.39483      95.4031 
0.000133652      1.56212      92.9462 
0.000113785      1.60135      105.938 
0.000127702      2.98482      101.985 
0.000111069     0.325575      47.5220 
0.000108034      3.80321      112.249 
8.43725e-05      3.71935      98.3524 
6.66237e-05      1.74195      74.6886 
0.000306762      2.20049      88.9644 
0.000594316      3.64804      86.2259 
2.46224e-05     0.891319      99.0579 
0.000122778      1.76578      103.091 
4.63163e-05     0.866617      71.1571 
4.22667e-05     0.903799      114.842 
0.000426520     0.474259      117.619 
0.000305328      3.39305      95.0751 
0.000192610      4.57330      101.605 
8.80283e-05      1.99645      79.0364 
0.000197316     0.885454      115.392 
3.05655e-05      2.91574      95.9087 
3.04195e-05      2.39908      97.1873 
0.000409057      5.02914      107.354 
0.000131691      3.73939      106.784 
3.16504e-05      3.75880      106.695 
0.000128758      1.74741      74.0478 
0.000234634      4.77539      108.811 
0.000358677     0.197181     -155.971 
0.000158970      1.09540      21.4151 
4.89951e-05     0.429314      62.1808 
0.000336319     0.466502     -30.9796 
2.02849e-05      1.04313      4.41451 
1.39220e-05     0.944023      36.3689 
6.74276e-05      2.91372      95.5124 
6.05792e-05      1.56324      93.6604 
4.35325e-05      1.59433      107.531 
8.76120e-05     0.956176      37.3465 
1.92178e-05     0.310934      45.0000 
1.27086e-05      4.55956      104.224 
8.84677e-05      3.73652      97.9999 
8.09358e-05      1.44499      94.7661 
0.000176617      2.01634      79.1459 
8.52566e-05      3.81093      112.530 
6.29309e-06      1.05916      100.904 
6.26497e-06      3.47872      108.435 
0.000196659      4.24810      101.679 
0.000142245      3.45950      108.541 
0.000164948     0.873371      69.8991 
4.89222e-05     0.339586      45.0000 
0.000144412      2.34048      88.5303 
6.72384e-05      4.55063      104.770 
1.18229e-05     0.867194      115.966 
5.94119e-06      1.10170      3.12355 
0.000120943      2.40160      97.6491 
0.000158394      3.99243      104.799 
7.53844e-05     0.894329      116.565 
4.03592e-05      2.98909      102.365 
7.23524e-05      2.12069      91.6221 
0.000226675     0.205897     -151.006 
7.31604e-05      1.32535      78.7028 
0.000167613      2.70883      94.6556 
1.68999e-05      1.14053      1.99832 
5.61942e-06      1.58761      109.120 
0.000232310     0.388092     -78.0600 
3.59658e-05      1.59436      109.808 
0.000230631      1.14142      3.01477 
0.000183084      1.77158      73.6146 
0.000133600      2.96174      106.470 
3.16608e-05     0.888355      97.7673 
5.53103e-05     0.761484      76.3198 
8.11507e-05      1.58346      93.6136 
4.24801e-05      3.67712      110.698 
9.24458e-05      1.15628      30.1092 
0.000106863      2.52565      110.869 
6.60043e-05      4.56927      101.356 
9.41686e-06      1.04767      13.2499 
6.95476e-05     0.228306      142.075 
0.000180575     0.876255      117.158 
2.05903e-05      3.91836      110.937 
-0.000379319      2.25406      117.478 
2.21795e-05      1.58211      110.721 
2.60465e-05     0.325575      42.4780 
0.000181116     0.483985      119.745 
0.000274717      2.50673      111.034 
2.03790e-05     0.438758      59.9270 
2.06398e-05      3.41323      95.0450 
7.56855e-05      1.42480      94.8338 
1.59021e-05      1.58939      111.405 
4.17753e-06      3.23255      98.1809 
-7.59414e-05     0.608228     -43.7003 
9.75797e-05      2.14381      81.4246 
7.80609e-06      1.36029      109.764 
1.14956e-05      3.24980      97.7765 
5.63547e-05      1.37867      109.490 
-9.22592e-05     0.609552     -41.0068 
3.80977e-06     0.971758      36.6487 
3.30445e-05      3.47134      94.6248 
3.94452e-05      2.12136      92.1691 
3.57171e-05      4.55583      105.016 
0.000168479      3.64937      85.9203 
2.79919e-05     0.601626      86.2097 
1.05431e-05      3.73376      97.6920 
0.000112009      1.57883      112.348 
4.57090e-05      1.18335      30.4840 
-0.000154420     0.627636     -37.2261 
1.99765e-05      4.56546      101.116 
4.67355e-05      3.93013      110.556 
1.04586e-05      2.87439      111.213 
-0.000189319      5.31956      109.317 
2.02602e-05     0.215843     -158.162 
8.01531e-05      3.21370      84.6408 
0.000202935     0.483985     -29.7449 
-0.000116175     0.594276     -45.0000 
3.10792e-05      2.27100      102.208 
-0.000141279     0.781960     -4.40292 
5.87479e-05      2.97004      102.446 
-2.30187e-05     0.802162     -4.29183 
4.78754e-05      3.65887      110.806 
2.48346e-05      3.44683      108.967 
-0.000264980     0.262662     -98.7088 
6.21343e-05      4.24404      101.411 
4.72880e-05      1.60293      93.5696 
3.14547e-05     0.404436     -81.4640 
6.19508e-06      2.32097      88.5179 
-6.45104e-05      4.37289      110.344 
0.000104748      5.25093      107.052 
0.000145076     0.401929     -84.3213 
-7.40933e-05      1.80147      112.870 
-0.000105375      1.56188      71.3387 
1.40818e-05     0.297458      42.3417 
1.67569e-05     0.493955      121.710 
8.31583e-06      1.06740      13.0007 
2.79865e-06      1.19336      31.2912 
1.10372e-05      2.71055      95.0824 
-8.17144e-06      2.58108      88.2174 
-5.43556e-06      1.98278      87.1149 
2.71688e-06      2.20023      89.4724 
-0.00109211      9.66194     -84.6569 
-0.000673508      4.25937     -78.8979 
-0.000484953      10.4353     -166.815 
0.000394974      5.00927      49.6966 
0.000106208      6.80510     -31.5413 
-0.000156716      9.96570     -4.14525 
0.000331988      2.68713     -134.389 
0.000375930      4.24864      158.751 
0.000332645      8.18421      129.449 
-0.000288353      9.59413     -148.728 
0.000528792      6.78848     -31.6274 
-0.000323369      10.0463      105.945 
0.000309993      7.69943     -146.762 
-0.000491720      8.62249      175.878 
-0.000312010      9.98590     -4.13684 
-0.000233685      6.30489     -84.9062 
0.000305982      8.28291      66.2193 
0.000526712      10.9985      22.7880 
-0.000253381      6.51415      149.974 
0.000341879      11.0967      37.5324 
-0.000255577      6.78566      73.9180 
4.64674e-05      9.72704      168.736 
0.000214213      6.27001     -27.1354 
-0.000215959      7.63629     -76.9839 
0.000211056      7.96240     -156.460 
-0.000291330      4.01650      95.1450 
0.000295543      7.33796      162.553 
-0.000294746      10.9821     -128.792 
-0.000249067      5.65248     -121.101 
0.000376799      7.68953     -20.5554 
-0.000131936      4.21266     -116.204 
0.000169402      8.44451     -11.3359 
0.000292707      11.5897      149.051 
8.74661e-05      6.26114     -26.9766 
0.000303552      6.81514     -156.297 
0.000206642      13.8594     -134.882 
0.000126775      11.5490     -121.183 
0.000242810      11.2297     -34.9920 
-0.000163017      9.60033     -148.892 
0.000241218      9.11575     -49.0053 
-0.000202096      6.80750     -102.730 
0.000161798      5.02417      49.8405 
0.000162738      7.58640      87.5850 
0.000121218      6.70708      156.263 
-0.000121450      11.2576     -120.300 
0.000120094      5.72192     -88.5948 
0.000201756      10.5473     -15.1693 
-0.000239750      6.53169      150.062 
0.000159811      10.1165     -41.4758 
-8.03098e-05      11.2025      55.0325 
-0.000121520      10.9488      21.8780 
0.000160135      4.44206     -46.4579 
-4.14682e-05      6.00197      116.309 
0.000158305      9.77735      157.001 
4.12448e-05      4.26753      158.850 
-8.05732e-05      9.64368     -84.5259 
-0.000119329      4.23085     -116.083 
7.99821e-05      10.9130      117.268 
-0.000119605      9.17607      147.279 
-8.09609e-05      5.16954      51.7610 
-4.06241e-05      2.34477      61.4583 
-0.000118150      8.45103     -22.9862 
-7.86259e-05      3.29184      62.4945 
7.81213e-05      4.10617     -149.564 
-4.03060e-05      7.26659      98.8690 
4.02147e-05      5.28815     -72.3904 
-0.000117279      9.27048     -29.6091 
0.000116278      9.74908     -140.660 
7.81428e-05      9.61560     -114.059 
7.78220e-05      7.14220     -91.4449 
0.000116054      8.74008      40.3617 
-0.000116015      8.62111      176.007 
0.000111307      13.8456     -134.824 
7.66225e-05      10.0705     -118.857 
-7.77479e-05      7.26962      99.0209 
-3.91421e-05      12.5169     -140.510 
-7.68201e-05      8.84357      91.5559 
-3.90701e-05      7.99693     -140.380 
3.89437e-05      2.93499     -130.863 
7.66859e-05      11.5389     -121.101 
-3.87928e-05      10.6105     -148.020 
3.86995e-05      5.89452      64.0449 
7.62026e-05      7.27304     -161.565 
7.66326e-05      9.20875     -12.8007 
3.83955e-05      8.96989     -34.1886 
-7.61788e-05      5.18211      51.5851 
3.83676e-05      9.51757     -159.586 
-7.56708e-05      11.1727      117.391 
-3.82291e-05      8.91255      85.1074 
7.59486e-05      10.5526     -15.2755 
-3.81906e-05      3.11197     -162.037 
3.79586e-05      6.29729     -27.2154 
-3.79500e-05      2.35416      61.0412 
3.78827e-05      13.3190     -42.6255 
3.79102e-05      11.5793      149.137 
-3.78749e-05      10.4307     -166.924 
-3.78708e-05      11.0966     -48.7259 
3.77469e-05      5.03677      49.6709 
3.76983e-05      7.67056     -20.6085 
-3.76722e-05      8.01602     -124.327 
3.76014e-05      11.4977     -28.1255 
3.74853e-05      10.2891     -25.0699 
3.73664e-05      5.83784     -120.692 
-3.73549e-05      10.9885      135.368 
7.70938e-05      7.88020     -136.543 
0.000141234      7.49850     -21.4298 
0.000302298      12.4520      133.046 
3.66554e-05      7.92173     -136.432 
-9.80498e-05      8.83533      73.6983 
0.000186282      10.1843      143.063 
-0.000162204      7.11050     -41.8088 
0.000129333      7.93571     -136.326 
0.000186007      10.1503     -118.735 
-6.74319e-05      8.08809      121.451 
-0.000154251      9.38003      19.1713 
3.37958e-05      7.86628     -136.650 
-0.000209907      9.14840      10.3292 
0.000143023      5.43084      27.8857 
-9.50216e-05      8.84104      73.5723 
-6.45105e-05      8.98357      98.7054 
-0.000210631      11.9063     -137.654 
6.18787e-05      7.47965     -21.4865 
-3.19282e-05      6.27676      127.490 
9.14212e-05      7.93927      74.2101 
-0.000188877      8.09829      121.569 
0.000146368      8.11793     -15.5766 
0.000261922      9.99369      107.708 
-3.06869e-05      6.26897      49.3980 
-5.88982e-05      8.96355      98.7250 
-0.000224496      8.36354      21.9045 
-0.000112155      11.8019     -42.9388 
-0.000108978      11.7726     -31.6659 
-8.25198e-05      6.28865      127.632 
0.000158663      7.24261     -133.657 
0.000135851      6.06881     -16.4631 
5.39487e-05      9.58520      103.514 
-8.30013e-05      7.64903      167.927 
0.000355431      9.38751     -53.2281 
8.12388e-05      7.94972     -136.220 
0.000123439      6.40801      142.733 
0.000378748      9.60239      35.6761 
-2.83405e-05      9.38645      19.2838 
-5.37719e-05      11.0342     -46.3226 
0.000266263      3.84418     -111.361 
7.94615e-05      7.93378      74.3509 
-0.000205097      6.15568     -96.1582 
-5.40324e-05      4.28485     -25.7304 
-7.63039e-05      11.2502     -65.5307 
4.90938e-05      7.49140     -21.2909 
-0.000122150      8.96664      98.8530 
-2.71758e-05      10.3269     -150.408 
-2.69291e-05      7.10846     -42.0349 
-4.77987e-05      10.3142      124.894 
-4.55099e-05      6.64578     -103.577 
-5.10698e-05      3.65466     -38.9997 
-0.000153087      7.08629     -43.9746 
-0.000292846      2.70111      7.22965 
9.43060e-05      10.1325     -118.790 
0.000119199      8.09914     -15.6136 
-5.04538e-05      10.1422      122.439 
-0.000176505      10.3369     -150.310 
-5.03528e-05      10.7708     -67.6249 
0.000117879      2.45831      158.023 
-2.55335e-05      9.50189      30.3437 
-2.53914e-05      2.53551     -122.430 
8.34298e-05      8.45183     -127.112 
-7.09196e-05      4.26660     -25.8485 
4.93160e-05      9.04308     -174.414 
-0.000119187      8.64449      91.8555 
-6.55873e-05      4.87665     -10.1566 
-0.000140720      10.3094      125.045 
6.80026e-05      4.72433     -64.9573 
2.46283e-05      7.24150      178.735 
-6.98537e-05      11.8157     -43.0107 
-0.000116411      7.62996      167.897 
6.62820e-05      5.62948      28.6592 
-2.41392e-05      9.52859      30.3857 
-0.000159696      11.0195     -46.2499 
0.000128557      4.84643     -76.8804 
6.82284e-05      7.93564     -136.123 
0.000139476      7.90434      74.5903 
-4.60794e-05      9.15192      10.4494 
-6.49397e-05      4.85178      136.166 
0.000180313      7.20222      178.567 
-2.35002e-05      11.0219     -66.9243 
6.81645e-05      8.62805     -87.4778 
8.22038e-05      8.65277     -78.5351 
-2.30641e-05      6.30104      127.777 
-0.000353325      7.76039     -89.2631 
4.44659e-05      5.03443     -94.3253 
0.000152258      4.74201     -65.0571 
-6.08018e-05      10.7631     -67.7246 
-0.000115667      10.1485      122.281 
-0.000246829      8.90031     -67.1230 
2.25768e-05      9.04113     -174.542 
9.41122e-05      12.4387      132.981 
4.30584e-05      6.04938     -16.5175 
-6.25842e-05      4.89585     -10.1163 
-2.23618e-05      9.54607      30.3242 
-2.23706e-05      6.00300      49.7304 
9.84994e-05      3.19409     -28.0099 
0.000117214      6.74356     -9.04621 
4.24572e-05      10.1798      142.906 
2.20182e-05      5.00119     -97.3532 
-0.000171116      9.13180     -92.8873 
0.000150140      9.93086     -46.4696 
-4.18334e-05      11.2586     -65.4369 
-6.27715e-05      11.9022     -149.169 
-6.15241e-05      9.79867      28.3961 
-2.16990e-05      8.11286      10.3693 
-5.49084e-05      9.40558      19.2430 
4.22794e-05      7.25661     -133.772 
-2.13975e-05      8.48693      92.2955 
-3.82814e-05      6.28504      127.891 
0.000104498      9.63668     -50.7291 
-0.000147405      11.8009     -43.0778 
9.72615e-05      9.02096     -174.530 
2.12872e-05      9.27007     -103.348 
-0.000318563      12.9747      128.743 
0.000127745      8.64829     -87.4837 
-0.000210849      11.1703      141.979 
4.12441e-05      5.02391     -97.5528 
-4.02257e-05      11.0405     -66.9655 
-3.76414e-05      5.99139      48.1120 
4.07833e-05      7.92426     -147.994 
5.48913e-05      7.27670      118.748 
-8.75893e-05      5.28033      179.129 
-2.06269e-05      9.13200      10.4724 
7.53022e-05      1.54096     -92.2326 
0.000145914      4.72152      122.546 
-0.000252530      9.59651      123.095 
-3.99683e-05      9.14322     -154.613 
3.84528e-05      7.96576      92.1595 
3.84006e-05      7.94918     -136.021 
3.89338e-05      8.10462     -15.7516 
-0.000268522      9.32919     -107.851 
-0.000137289      7.99836      115.156 
-7.21628e-05      6.01790      49.8505 
-5.61627e-05      10.3667      79.1016 
-1.99740e-05      8.62492      91.9943 
8.60725e-05      8.40352      149.226 
5.35614e-05      6.16196     -41.7123 
1.98596e-05      2.47711      158.199 
-5.57589e-05      1.61563      53.5559 
-3.82403e-05      6.29750      128.036 
-3.70315e-05      6.05662     -35.9981 
0.000127016      10.1148     -118.845 
5.15074e-05      4.52996      119.057 
5.27850e-05      10.3839      146.310 
-0.000385336      11.9294     -149.134 
-0.000301262      10.7270     -160.958 
-0.000224909      11.2876     -153.026 
1.93512e-05      5.01423     -94.3428 
-1.92879e-05      3.63894     -39.2005 
7.17923e-05      7.63954     -133.515 
0.000146950      7.97816     -26.5000 
-0.000201618      13.3375      135.789 
-0.000222229      2.65265     -23.0837 
0.000195510      7.93502     -147.870 
-5.42957e-05      9.77187      28.3461 
6.19840e-05      9.58048      103.396 
-3.58218e-05      11.7898     -31.6142 
-5.15644e-05      6.37723     -106.959 
1.85390e-05      9.36509      35.9673 
3.30686e-05      5.02651     -97.7733 
-9.82917e-05      9.11623     -154.673 
-5.09513e-05      5.52878      142.051 
-1.83519e-05      9.58042      30.2041 
8.41727e-05      5.36009     -135.754 
0.000105273      5.22183     -100.147 
3.36894e-05      14.1149     -134.197 
1.79907e-05      7.50296     -21.0906 
1.78990e-05      10.3969     -105.051 
6.65694e-05      11.4504     -51.1690 
3.41550e-05      5.60081     -134.419 
4.80179e-05      8.60953     -164.091 
-0.000268372      9.70627      22.9177 
-0.000137958      9.62050     -160.697 
-0.000359373      13.7104      133.168 
6.29591e-05      7.57781     -166.882 
-3.13151e-05      8.50643      92.2902 
-3.43187e-05      12.6299      37.7959 
0.000116675      6.60476     -177.747 
-0.000168646      4.74201     -114.943 
-7.79913e-05      6.37135     -106.785 
-3.31829e-05      9.11281      10.4947 
-4.64365e-05      9.47998     -40.2097 
0.000102835      8.10391      94.3865 
1.71852e-05      9.27477     -103.470 
8.90594e-05      6.01479      4.00617 
1.71100e-05      12.7343     -46.7813 
-7.31773e-05      9.07443      73.4832 
-1.69913e-05      10.5363     -159.676 
4.87408e-05      7.05687      113.733 
3.23709e-05      5.84537      59.5736 
-1.68718e-05      10.7557     -67.8208 
4.71821e-05      13.1036      50.0155 
-5.48319e-05      2.50796     -122.302 
5.96153e-05      9.33740      35.9370 
1.66330e-05      10.6775      157.997 
-7.69922e-05      11.0055     -46.3261 
1.65061e-05      5.61237      28.7547 
-3.15051e-05      6.15354     -95.9706 
-3.14146e-05      9.75405      28.4026 
3.23181e-05      8.79415      119.422 
0.000102780      10.1840     -109.503 
4.41950e-05      6.76357     -9.01922 
3.13182e-05      8.65254     -162.236 
5.57609e-05      7.89898      74.7320 
5.70365e-05      7.27064     -133.888 
-3.07599e-05      7.07226     -44.0843 
0.000208812      9.93215     -46.6317 
1.61518e-05      10.0570      52.5153 
-9.01279e-05      12.5855      37.8360 
-7.02719e-05      8.03203      126.701 
-0.000187122      5.37172     -126.828 
0.000168419      9.33719     -172.617 
0.000162730      9.58032     -163.383 
-3.13866e-05      6.09913      31.8657 
0.000124357      7.18196      178.563 
0.000156291      1.52080     -91.4985 
-4.04590e-05      11.0326     -67.0624 
4.60033e-05      6.82331     -156.141 
-1.57769e-05      6.27262      127.745 
1.57554e-05      11.4662     -51.2324 
2.91354e-05      8.08512     -15.7905 
8.31184e-05      10.9455     -127.874 
3.06453e-05      7.61090     -133.510 
-7.05686e-05      10.9940      46.8448 
4.38695e-05      7.96326     -135.916 
0.000145703      4.73245      122.753 
-0.000245006      9.60208     -160.659 
0.000148527      6.85927     -172.463 
4.32311e-05      13.5786      131.178 
1.53568e-05      8.64877     -78.6667 
0.000105050      6.08451      39.1288 
2.99500e-05      9.94556     -46.5500 
7.00378e-05      8.62897     -87.3434 
-4.30749e-05      8.64616      22.2936 
5.63758e-05      5.61476     -134.280 
0.000112544      8.80412      119.537 
1.50929e-05      7.94628      92.3055 
-3.43683e-05      10.8264      141.902 
-2.84898e-05      10.1377      122.184 
2.56415e-05      4.82671     -76.8258 
-4.22009e-05      11.2034     -46.2999 
5.54151e-05      6.88077     -89.3314 
0.000147013      9.57541     -14.2682 
4.14385e-05      5.37425     -135.600 
-8.30573e-05      6.08846      31.7037 
8.31538e-05      6.16367     -41.4464 
-8.35863e-05      10.8076      141.687 
0.000799372      13.5920      131.242 
6.52622e-05      4.90480     -65.4189 
-2.75453e-05      4.86717      136.668 
-2.85154e-05      7.91865      119.672 
-1.44839e-05      10.6815     -163.466 
1.44622e-05      10.0688      52.4272 
-1.44483e-05      6.26069      127.603 
2.81054e-05      13.0947     -41.2851 
0.000144580      6.84115     -156.207 
1.44044e-05      2.66304      107.480 
-0.000101435      13.3306      132.931 
-4.04514e-05      5.54477      142.179 
-2.59914e-05      10.7669     -67.9613 
-8.66005e-05      7.66520     -141.040 
0.000318422      13.3465     -132.753 
0.000125285      11.4540     -51.3085 
2.72167e-05      9.13927      119.931 
-0.000149176      12.9620      128.673 
-2.75287e-05      4.90703     -119.278 
3.85365e-05      7.66411      49.8691 
0.000106965      7.05926      113.366 
-6.45724e-05      10.0404      19.9165 
-1.38188e-05      9.63531      117.842 
2.71829e-05      14.0855     -134.771 
-1.38488e-05      6.62248      151.501 
1.37844e-05      9.64848     -165.474 
-3.85966e-05      9.52627     -137.468 
8.10912e-05      4.84188     -77.1139 
2.60022e-05      4.52016      118.833 
-1.36203e-05      12.6139      37.8523 
7.70749e-05      9.51903     -170.933 
2.68160e-05      9.93010     -19.1634 
-1.35935e-05      10.8104      141.836 
-3.82017e-05      10.9769     -46.3295 
0.000141368      10.2564     -46.5030 
-0.000123188      12.5701      37.8906 
-3.73869e-05      7.90864      119.545 
-0.000229971      9.08994      107.279 
2.61931e-05      10.6654      66.2250 
-6.77293e-05      9.30245     -91.2341 
9.95903e-05      11.9835      55.1964 
0.000110753      11.1530      24.3578 
3.69505e-05      3.81795     -111.189 
-5.11897e-05      6.07219     -107.839 
-5.03841e-05      10.0478     -66.2912 
-0.000115634      4.93396     -119.372 
-5.06052e-05      13.6357     -43.8116 
3.65763e-05      10.9497     -56.0181 
9.42627e-05      10.3992      23.4592 
1.30799e-05      7.53285     -20.8379 
-3.79322e-05      9.61740      117.899 
-1.29789e-05      4.85550     -11.4002 
1.29621e-05      8.05216      80.4192 
1.29772e-05      9.36202      134.825 
4.96108e-05      9.56533     -85.8026 
2.33180e-05      13.0813     -41.2184 
-0.000119912      11.1862      142.043 
0.000230683      6.83918     -172.441 
-0.000128020      9.15232     -93.0078 
-0.000288984      11.9688     -35.2036 
-0.000174475      13.6504     -43.7527 
0.000119187      9.52227      88.7944 
-3.64943e-05      7.53622      170.839 
2.50491e-05      14.0993     -134.828 
-1.27694e-05      9.08958     -154.730 
5.85118e-05      9.85380      125.916 
0.000104217      9.94286     -19.0188 
0.000127992      10.2209      23.4068 
-0.000122468      11.2702     -152.981 
-4.70854e-05      8.66165     -68.8862 
-9.32286e-05      7.52569      175.276 
2.48797e-05      13.0907      51.3274 
-7.06868e-05      6.46549     -109.894 
-1.26242e-05      6.24835      127.456 
-6.80370e-05      8.52589      92.1487 
-2.42367e-05      6.03340      49.9745 
-0.000196060      7.55315      171.009 
-3.61798e-05      6.61456      147.848 
9.94145e-05      14.1462     -136.373 
-1.24149e-05      6.10571      31.6038 
1.23936e-05      12.8756      39.3263 
-1.24217e-05      12.0927      124.217 
-4.63248e-05      11.0221      46.8373 
-3.53338e-05      11.2169     -46.2279 
5.42371e-05      9.34827      134.740 
6.66213e-05      10.7353      27.7580 
-1.21603e-05      9.36583      69.6325 
1.21699e-05      9.67376      73.1773 
9.02884e-05      10.6575      66.3210 
1.21276e-05      7.55808     -166.847 
-9.75332e-05      10.9210     -28.9108 
-1.20559e-05      4.83638     -11.4459 
-2.38532e-05      12.7785     -128.647 
0.000182781      10.4073      23.5615 
-0.000136268      12.0541     -142.009 
-6.12002e-05      12.0249     -126.070 
-1.19926e-05      6.00444      47.9734 
-2.32579e-05      11.8097     -42.1182 
-7.33047e-05      6.16110     -23.7365 
-2.33756e-05      10.1949      94.7244 
3.35205e-05      10.1656     -109.540 
8.41985e-05      9.35990     -172.510 
3.40907e-05      8.47977      115.719 
-3.35512e-05      11.7160     -150.328 
-2.29573e-05      6.09551      31.4476 
-1.17828e-05      9.51060      117.968 
-2.33467e-05      10.8103     -51.1594 
0.000131021      4.35996      123.395 
-0.000127006      12.0532     -126.091 
3.31858e-05      9.39210     -53.3974 
-3.23175e-05      9.05501      73.4467 
1.17035e-05      12.8789      39.2020 
-3.32726e-05      5.64888     -171.036 
0.000111242      9.58407     -85.9323 
-1.15963e-05      9.48242     -40.0372 
2.29662e-05      7.92671      49.1957 
1.16023e-05      8.38263     -79.4153 
-0.000147522      13.3229      135.728 
0.000217455      7.58555     -25.6195 
3.85031e-05      10.3126     -127.514 
6.20489e-05      9.00725      154.058 
-7.41123e-05      10.9493     -46.3329 
-2.12018e-05      9.03169      53.2824 
-0.000195993      10.3210      125.137 
1.15158e-05      14.1136     -134.886 
1.15026e-05      4.98708      2.98424 
-8.32479e-05      8.61143     -28.8878 
-1.14786e-05      6.15076     -23.9852 
-3.36217e-05      12.4901     -35.0879 
0.000167919      7.01028     -169.815 
4.37394e-05      6.60402     -177.916 
0.000198749      12.0117      55.1722 
-6.24236e-05      6.69384      166.173 
-1.13671e-05      9.34684      69.5893 
-0.000153934      6.60825      147.606 
-2.24082e-05      9.43063     -154.901 
-5.42465e-05      13.5341      47.6336 
9.35383e-05      10.3003     -127.425 
-4.16480e-05      8.63563      132.373 
-3.26800e-05      9.24274      141.765 
-1.12679e-05      12.1041      124.296 
-1.12789e-05      4.85955     -11.6344 
9.20544e-05      4.92255     -65.5134 
-9.24126e-05      12.7658     -128.576 
-7.56003e-05      12.5541      37.9474 
0.000143641      11.1614      24.4526 
-1.11891e-05      9.49337      118.023 
-2.15858e-05      11.0250     -67.1558 
-6.17909e-05      9.84524     -94.0778 
-1.11512e-05      6.23605      127.308 
-2.19109e-05      8.11218      121.180 
-8.20417e-05      10.1933      94.6151 
-1.10874e-05      12.2364     -35.3518 
1.10731e-05      14.1279     -134.944 
2.17549e-05      8.38638     -79.2793 
-7.20376e-05      9.83010      63.7988 
-2.18879e-05      11.2805     -154.478 
-0.000163755      10.0018     -149.075 
5.10624e-05      6.10024      39.0087 
-4.18882e-05      7.89904      119.422 
-0.000232763      9.72494      22.8712 
-0.000215943      10.9689     -137.290 
-0.000185596      13.3444      132.995 
-0.000127861      10.8261     -51.2267 
4.22523e-05      11.6402     -47.9238 
-2.15526e-05      7.67796     -140.922 
6.17850e-05      7.91348      49.3068 
-3.14262e-05      7.07080     -65.6109 
3.13235e-05      3.81067     -110.905 
-4.73695e-05      8.73101     -64.4899 
-0.000135830      12.2406     -35.2216 
1.07855e-05      10.9384     -56.1061 
-1.07104e-05      4.81652     -11.4937 
2.12744e-05      14.1417     -135.000 
4.16088e-05      12.6641     -52.8965 
-3.02564e-05      9.48379     -137.392 
-5.04711e-05      11.3456     -61.8078 
-6.05860e-05      12.5017     -35.1639 
1.06822e-05      8.63717     -55.7563 
-1.06505e-05      9.49863     -3.62349 
-0.000150759      12.9595      128.797 
1.06347e-05      9.54177      88.7968 
-4.88509e-05      13.6515     -43.6347 
2.08808e-05      13.3524     -133.907 
7.22766e-05      8.47100      115.596 
5.93776e-05      11.6552     -47.9906 
0.000202440      9.33982     -172.494 
-4.83795e-05      10.7774     -68.1001 
-2.06835e-05      11.3332     -30.5467 
-7.55446e-05      7.50549      175.263 
1.05387e-05      8.11502      66.4668 
-2.98218e-05      4.46616     -151.368 
-0.000180065      11.0021     -153.902 
-2.02920e-05      10.5717     -110.835 
8.88311e-05      11.5399      135.422 
-2.01079e-05      12.0874      123.322 
-5.61484e-05      10.3545     -150.366 
4.78967e-05      10.4228     -123.414 
-2.06670e-05      6.22424      127.166 
-3.01482e-05      11.7867     -43.1426 
-1.03961e-05      8.35257     -65.8274 
3.05454e-05      14.1560     -135.058 
-0.000191814      13.6657     -43.5783 
3.95424e-05      10.3980      24.7896 
-7.57837e-05      11.0082      46.9142 
-6.99430e-05      12.5666      38.0202 
-0.000110910      9.09598      107.401 
-5.75466e-05      11.2028     -46.1588 
7.76962e-05      5.87909     -163.601 
0.000185712      9.75161     -123.201 
2.96421e-05      5.93689      59.2014 
-1.03103e-05      7.74117     -89.1113 
1.02344e-05      8.37028     -79.1172 
2.01648e-05      5.40431     -166.739 
-6.29396e-05      10.7783     -63.9095 
2.91570e-05      9.84193      125.821 
2.00460e-05      8.08992     -172.469 
-2.95020e-05      6.47215     -110.057 
-7.35591e-05      10.0192     -149.134 
1.01517e-05      7.89367      74.8739 
3.87494e-05      6.58452     -177.910 
1.98095e-05      9.54220      88.6797 
0.000187680      11.8840     -46.6375 
3.88427e-05      2.68824     -143.479 
-2.89987e-05      11.7063     -150.411 
2.62217e-05      10.4063     -42.2762 
6.73833e-05      9.96202     -18.9809 
2.87622e-05      9.56295      178.561 
-1.00045e-05      8.05251      126.413 
-1.00247e-05      7.36730     -122.699 
-3.81022e-05      13.5622      47.6304 
6.77987e-05      13.6243      136.605 
9.98979e-06      14.0208     -133.324 
-3.74263e-05      8.62199      132.273 
0.000202468      13.3665     -133.970 
7.90353e-05      12.6919     -52.8767 
1.94337e-05      11.9324      132.622 
-1.95880e-05      12.2641      37.1146 
-2.88660e-05      8.36057     -65.7054 
-5.52137e-05      7.69311     -141.014 
-9.88148e-06      3.49784     -25.3941 
-1.92508e-05      11.8086     -45.0695 
2.93153e-05      14.1703     -135.116 
-3.79298e-05      9.23609     -156.657 
1.95517e-05      9.31784     -172.601 
-0.000115109      10.1225     -70.1345 
-4.63911e-05      8.86855      74.8337 
5.50443e-05      10.2711     -46.5808 
0.000184426      7.90510      67.0664 
-1.93662e-05      6.14401      47.6383 
9.78660e-06      5.58665     -134.271 
0.000249223      10.9226     -119.991 
-9.71581e-06      11.3951     -116.476 
-1.91922e-05      7.37826     -122.832 
1.91871e-05      7.86040     -24.0202 
0.000206987      7.61070      146.689 
-2.84564e-05      6.20811      127.279 
-2.73264e-05      6.71352      166.214 
-1.87019e-05      8.88693     -58.5285 
3.72879e-05      9.21052     -172.891 
7.29410e-05      14.1321     -136.319 
-1.90135e-05      9.23894      141.592 
-2.75377e-05      9.44792     -44.1440 
-5.51134e-05      10.9207     -46.3364 
-8.02800e-05      11.3861     -116.384 
1.89316e-05      5.33168     -135.456 
-0.000215064      10.7461     -160.993 
-0.000180264      12.9722      128.867 
-0.000255227      12.5512      38.0751 
6.46970e-05      14.1842     -135.171 
-1.88653e-05      7.89102      119.617 
-0.000246082      10.3166      162.514 
-3.56737e-05      11.0422     -28.3292 
-9.46711e-06      13.0819     -135.432 
9.44801e-06      10.9336     -55.9609 
9.43359e-06      11.9180     -49.6272 
6.43701e-05      13.6391      136.663 
-4.58930e-05      10.1917      94.5016 
-8.82466e-05      9.61634     -96.2089 
-9.40644e-06      7.40587     -122.874 
-0.000132994      11.9853     -35.1478 
-5.35823e-05      14.0088     -136.967 
-3.68389e-05      10.0899      5.68939 
9.39425e-06      10.3954     -10.5312 
-9.37285e-06      4.95163     -119.257 
6.27815e-05      7.47000      87.0864 
4.54907e-05      5.04967     -73.4312 
1.84988e-05      8.10926     -172.487 
-3.62475e-05      7.76440      53.4845 
5.29614e-05      7.84258     -24.0783 
-3.60849e-05      6.11644      47.6502 
7.80061e-05      3.40970     -72.9408 
3.63236e-05      11.5260      135.353 
-6.08005e-05      11.3361     -61.8981 
7.01052e-05      6.81984     -172.419 
4.39397e-05      5.88985     -49.8215 
-0.000132571      12.3810      39.8883 
-9.21123e-06      4.95252      143.875 
7.68968e-05      11.3515      25.7960 
9.21536e-06      9.66198     -102.309 
-1.82644e-05      9.82118     -116.618 
-0.000302900      13.4564     -46.8687 
0.000112475      11.1510      24.5869 
-2.66523e-05      12.4852     -35.2174 
5.90262e-05      11.9468      132.559 
-0.000185424      11.4565      139.106 
7.87797e-05      5.31725     -135.303 
0.000192823      8.46259      115.477 
3.54299e-05      6.12960     -42.4846 
-5.39004e-05      13.6953     -43.3438 
4.41593e-05      8.81375      119.647 
-9.15462e-06      11.7948     -45.1366 
1.82084e-05      9.98047     -18.9444 
4.41897e-05      8.68640      40.1434 
9.14990e-06      11.9311     -49.5531 
-9.17285e-06      3.87174     -17.1215 
4.41085e-05      7.59486      44.4676 
8.57375e-05      10.3919     -42.3486 
-0.000145352      13.3831      138.999 
-9.13002e-06      9.41406      122.947 
-5.29286e-05      10.7694     -64.0063 
5.26885e-05      6.80627     -84.9400 
3.58216e-05      9.99309     -18.7969 
0.000170100      9.68178     -102.284 
9.07622e-06      5.73294      97.8162 
0.000117539      5.90426     -163.467 
-9.06962e-06      10.1543     -139.312 
-3.38713e-05      7.67847     -16.0262 
-9.04611e-06      7.88140      119.494 
9.04598e-06      7.90078      49.4141 
-9.35366e-05      8.72470      52.2638 
-2.64227e-05      12.3940      39.9601 
-9.02838e-06      10.8960     -29.1052 
-9.02616e-06      10.0531      78.1768 
-8.68955e-05      12.2459     -35.0924 
8.99916e-06      11.0517      60.5109 
-0.000190942      12.0369     -126.148 
6.05235e-05      9.50161      88.9140 
1.75454e-05      2.71598     -143.380 
1.72881e-05      9.56090     -163.349 
7.00562e-05      13.6533      136.719 
-7.76281e-05      10.0697      5.70082 
-3.51061e-05      6.65486      9.69174 
1.76938e-05      14.1164      136.034 
4.26345e-05      11.8832     -46.4994 
-8.93424e-06      4.58185      135.352 
0.000109138      9.59413     -31.2719 
-3.49745e-05      7.97075      21.0251 
4.22149e-05      9.49562     -85.0450 
6.05987e-05      14.1985     -135.229 
-8.92878e-06      5.80608     -62.2891 
-0.000100338      9.81212     -116.512 
-8.90001e-06      7.87145      119.365 
-8.87598e-06      10.5645     -110.733 
-2.60831e-05      9.21750     -156.607 
-6.05144e-05      10.6036      48.9769 
0.000157876      13.9949      137.027 
6.00856e-05      12.0599      147.048 
-3.46420e-05      8.57786     -153.554 
-4.35061e-05      10.2096      94.3796 
3.41088e-05      10.8282      145.843 
-8.82452e-06      11.6604      33.1706 
0.000190889      11.5259      135.211 
6.91704e-05      10.0116     -18.7609 
-0.000314567      13.6806     -43.4020 
-1.74173e-05      9.40305      122.843 
-1.71998e-05      7.29160      13.1581 
2.57374e-05      11.0341      60.4591 
8.77250e-06      11.4255     -51.3243 
-0.000117609      13.4525      48.9172 
-0.000116375      11.0280     -36.8902 
-6.61096e-05      10.1173     -157.696 
-1.74577e-05      10.0573      78.0638 
5.08039e-05      12.0233      55.0929 
3.42279e-05      5.06909     -73.4965 
8.74580e-06      9.19116     -172.876 
5.88021e-05      13.2168     -129.351 
1.72593e-05      4.93067     -65.3071 
-3.37687e-05      11.6767      33.1182 
-8.31863e-05      10.8230      141.752 
0.000189856      13.7252      136.890 
5.05966e-05      10.2395      23.3618 
-8.71011e-06      7.86153      119.237 
1.72547e-05      7.59433     -25.7574 
-5.07470e-05      13.7100      133.286 
-1.71726e-05      10.7850     -68.0002 
7.52616e-05      11.0062     -43.5248 
5.89549e-05      11.5899     -54.1993 
-9.06581e-05      6.67484      9.66246 
-3.39745e-05      10.9067     -46.4134 
2.53841e-05      11.6683     -47.9194 
-8.67847e-06      12.7500     -128.632 
0.000151284      5.92297     -163.521 
8.67409e-06      13.7104      136.832 
8.66584e-06      10.5848      149.071 
8.65003e-06      9.83008      125.725 
0.000172616      14.1181     -136.378 
-8.60939e-06      7.85202      119.113 
-1.69213e-05      10.3469     -69.6370 
-8.59426e-06      9.82503     -94.0862 
-9.02972e-05      7.73606      53.5158 
3.38571e-05      6.78859     -84.7614 
-9.19776e-05      10.0340      78.1539 
-8.20696e-05      10.1696     -139.387 
-0.000272192      12.9687      128.990 
-5.79456e-05      11.1882     -46.0870 
-4.99647e-05      10.9839     -153.855 
0.000221193      10.7966     -71.1948 
0.000106511      14.1018      135.977 
-0.000335757      11.9907     -35.0158 
-8.53170e-06      5.81553     -62.1123 
-8.50075e-06      7.84218      118.983 
9.05157e-05      10.0307     -18.7237 
3.49557e-05      7.24150     -88.7353 
-4.16645e-05      11.0601     -28.2794 
-8.28225e-05      9.73283      22.9811 
-8.48945e-06      10.1901      94.3880 
-9.82636e-05      9.64607     -160.628 
1.67030e-05      4.35429      123.764 
-4.95219e-05      6.89438     -137.704 
8.21960e-05      5.30000     -71.2957 
-6.59760e-05      10.7512     -63.9590 
-8.48915e-06      6.88732      153.809 
-0.000128798      7.96378      20.8941 
-8.47882e-06      11.1376     -154.585 
4.73721e-05      7.58041      44.5749 
2.50337e-05      10.6390      66.2771 
-8.11027e-05      13.6664     -43.4582 
3.34313e-05      11.7016      119.940 
7.37403e-05      11.0648      22.5302 
-0.000106004      12.7523      140.219 
-2.46004e-05      6.07819     -108.014 
-4.17339e-05      10.2081      94.2705 
-3.31663e-05      13.6057     -44.2850 
8.41800e-06      10.4011      65.7001 
-8.43325e-06      8.73064     -64.1992 
4.10930e-05      6.11468     -42.6128 
4.04350e-05      8.69899      40.2416 
-1.67282e-05      7.83238      118.854 
2.48251e-05      8.94390     -102.265 
-8.40725e-06      6.89627      154.026 
9.46543e-05      7.44880      87.2284 
-6.53009e-05      10.9552     -137.368 
1.65292e-05      9.50201      88.7918 
-2.49551e-05      10.6189      49.0487 
8.15814e-05      4.94909     -65.4051 
-0.000106335      12.2293     -35.1470 
-1.64551e-05      11.0825     -63.0654 
-1.65961e-05      11.1896     -25.9705 
7.33667e-05      13.6252      136.725 
8.33228e-06      6.83300     -156.363 
-2.48923e-05     0.761740      23.2060 
-8.33191e-06      11.1199     -154.542 
8.14452e-05      14.2129     -135.287 
0.000105484      9.57099      92.7547 
-3.28841e-05      11.5884     -56.8316 
-1.65282e-05      10.1119      168.246 
8.30311e-06      12.0305      42.7074 
5.70664e-05      9.48099      89.0341 
9.74713e-05      11.6915      119.854 
-4.88112e-05      9.17255     -93.0012 
5.71552e-05      10.4196      65.7459 
8.30079e-06      7.60854      44.5725 
-0.000113721      10.0321     -112.629 
-4.08327e-05      12.5922     -127.124 
-1.64756e-05      7.70364     -99.4128 
3.19728e-05      6.80802     -84.7764 
0.000113652      12.0172      42.6390 
-8.27130e-06      6.92392      154.324 
-8.28446e-06      10.9949      46.9885 
6.50157e-05      7.24109     -88.8896 
-6.52750e-05      10.0496      5.71230 
-0.000194807      12.5353      38.1322 
-4.90026e-05      7.82299      118.728 
-1.63293e-05      6.50680      149.730 
4.88345e-05      9.45297     -132.941 
-8.25129e-06      9.88458     -11.0822 
-8.12669e-05      10.4213     -137.799 
-4.06158e-05      12.9597      139.130 
5.68279e-05      12.0769      147.100 
-8.89994e-05      10.3162      125.294 
1.64397e-05      10.8229      145.694 
-2.44079e-05      9.61417     -96.0888 
7.28965e-05      7.89240      46.0247 
-3.24685e-05      11.0886     -151.447 
0.000258680      13.6049      131.304 
-8.91958e-05      10.8920     -46.3399 
-1.62960e-05      7.61136     -76.4761 
-4.05900e-05      6.90566      154.251 
2.44153e-05      5.30340     -135.155 
-4.88860e-05      10.2066      94.1570 
-1.51998e-05      5.62960     -171.005 
-4.86948e-05     0.753987      21.7908 
4.05926e-05      10.2896     -129.321 
-8.20095e-06      12.0143     -146.337 
-7.27785e-05      10.6062      49.1283 
0.000129536      13.3951     -133.972 
-8.18345e-06      9.90372      78.9395 
8.18999e-06      6.19151     -50.2416 
7.28156e-05      7.57677     -25.8215 
7.26915e-05      12.0399      55.1481 
5.67765e-05      7.92116      82.8932 
-2.44488e-05      11.7511     -34.8784 
-8.16108e-06      9.28178     -91.1118 
-4.84083e-05      12.9858      129.502 
5.66956e-05      10.9328     -120.083 
-6.46387e-05      13.6054     -44.4056 
-4.85279e-05      7.93360     -152.853 
2.42810e-05      12.8723     -142.701 
-1.62516e-05      12.2457     -35.8952 
-1.62327e-05      11.1113     -154.636 
1.62383e-05      10.5687     -71.8043 
-4.83788e-05      13.5203      134.519 
-2.43892e-05      13.4678      48.9738 
8.15686e-06      9.83102     -175.451 
5.65717e-05      9.36247     -172.391 
-4.83956e-05      10.0515      5.82296 
0.000104914      9.67765     -102.171 
7.26432e-05      12.7521     -42.7751 
-4.04152e-05      7.68036     -99.2884 
-4.03676e-05      8.73711      52.1587 
-2.42687e-05      9.90763      78.8245 
6.46331e-05      11.1411      24.7250 
2.42750e-05      10.1343      116.112 
5.65416e-05      12.5447      143.624 
-5.64681e-05      10.0142      78.1301 
1.61749e-05      8.85503     -77.3464 
1.61583e-05      12.0874     -123.322 
4.84067e-05      8.39512      109.774 
4.83797e-05      11.3421      25.9327 
-1.61710e-05      10.1278      168.378 
-8.11711e-06      11.0779     -28.2298 
-5.65275e-05      9.88849     -11.1974 
-7.25061e-05      13.4806      48.9113 
5.63968e-05      9.84147     -173.582 
0.000120890      13.1435     -141.176 
-1.61653e-05      10.2240      93.9265 
-6.45062e-05      11.7671     -34.8241 
8.08139e-06      8.93961     -102.138 
4.02564e-05      9.10565     -100.249 
-5.63305e-05      11.3556     -57.1490 
-4.02608e-05      13.3545      139.008 
1.61130e-05      9.73366      86.9375 
1.61126e-05      13.3806     -134.032 
3.21868e-05      11.9422     -49.3472 
-3.22035e-05      3.27000     -4.55400 
-4.02706e-05      10.2226      93.8132 
-8.06191e-06      12.2501     -35.7678 
-8.04922e-06      11.1721     -26.0143 
4.81254e-05      1.10943     -62.0483 
8.05055e-06      6.59070      72.3366 
-8.05204e-06      7.72448      53.6322 
8.04488e-06      11.6963     -47.9098 
8.06552e-06      10.8061      145.633 
-2.41511e-05      9.06412     -65.0728 
3.21947e-05      10.4381      65.7916 
-2.41774e-05      12.6200     -127.144 
-4.83006e-05      13.5503      45.9558 
-4.83156e-05      12.9564      128.923 
-3.21676e-05      9.83863     -116.567 
-2.41356e-05      6.87996     -137.595 
-1.60795e-05      11.0856     -28.0898 
-1.61129e-05      11.0553     -63.1115 
1.60968e-05      10.1254      116.009 
3.21884e-05      9.48135      88.9116 
7.95863e-05      7.44198      63.1585 
8.04903e-06      13.2011     -129.407 
-1.61256e-05     0.780402      22.6199 
8.02251e-06      5.33152     -135.148 
-1.60910e-05      10.6916     -137.956 
1.60961e-05      6.09978     -42.7417 
-3.22043e-05      6.88775     -117.308 
-1.61004e-05      9.26115     -90.9889 
-1.60760e-05      10.2284     -60.4767 
3.21715e-05      13.7400      136.947 
-2.40987e-05      10.3530      135.781 
2.41259e-05      11.7934     -47.6819 
1.60768e-05      11.9331      132.487 
8.03777e-06      4.96002      17.1218 
-3.21593e-05      10.2214      93.7041 
4.02772e-05      14.1159      135.918 
1.60898e-05      11.0573      22.4368 
-1.61041e-05      7.80523      118.800 
-0.000123006      6.91516      154.475 
-8.05001e-06      11.3445      149.957 
-2.41354e-05      12.2134     -35.1997 
-2.41375e-05      10.3359      162.548 
-3.13700e-05      3.29186     -4.87753 
8.02828e-06      9.46781     -132.858 
-8.06395e-06      12.0067     -34.9624 
-1.60741e-05      13.3226      135.609 
1.61363e-05      11.1234      24.7670 
8.04718e-06      4.10581     -132.237 
-8.04110e-06      12.6318     -127.214 
-8.04917e-06      10.1353     -157.738 
8.02659e-06      7.03538     -82.8128 
-2.51927e-05     0.860182      1.34965 
-8.04813e-06      8.03011     -106.493 
8.05425e-06      14.2268     -135.342 
-8.05672e-06      13.5047     -42.4801 
8.06607e-06      12.3997      145.182 
-8.05767e-06      13.0984     -47.9071 
-8.05460e-06      10.8198      141.606 
4.42163e-05      9.76271     -123.300 
-8.02685e-06      9.17152     -92.8748 
-8.04698e-06      11.6164     -38.4298 
-8.04866e-06      8.87240      67.8863 
-7.97454e-05     0.798447      22.0814 
-8.02835e-06      10.1079      168.355 
-8.04206e-06      12.3655      39.9485 
0.000162705      10.9273      156.486 
1.87423e-05      12.7876      38.8425 
8.04613e-05      12.3172      50.4679 
-0.000257521      13.1098     -44.6916 
5.83225e-05      10.3195     -172.874 
5.87483e-05      7.22199     -88.7319 
2.66401e-05      9.14367     -83.2179 
-1.78791e-05      6.44753     -166.910 
-5.62137e-05      6.48277      149.398 
-2.56782e-05      7.34854      165.663 
5.41421e-05      12.7749      38.7718 
0.000161154      7.01389     -169.652 
1.68189e-05      7.90648      45.9190 
-3.96630e-05      13.3500     -135.000 
1.71283e-05      8.75893      115.276 
-3.22148e-05      8.91164     -139.734 
-0.000143502      9.44081     -137.319 
2.48351e-05      10.1282     -127.459 
7.87554e-05      7.81158     -176.916 
6.83356e-05      9.86300      8.27621 
-1.57044e-05      4.87216      147.747 
-4.77524e-05      10.2379     -61.5340 
2.44276e-05      10.4496      165.141 
0.000105877      8.02357     -144.843 
2.34957e-05      6.07286     -42.4661 
-0.000119582      9.32019     -149.857 
0.000134152      8.52061      169.589 
-9.82818e-05      7.44491     -123.051 
-3.84625e-05      8.66897     -68.7613 
-1.61586e-05      6.78682     -108.916 
-3.81518e-05      4.88867      147.869 
6.67065e-05      10.1177      10.1323 
8.16292e-06      7.58551     -175.313 
8.14134e-06      10.2332     -173.152 
-1.55592e-05      10.8736     -59.6126 
-8.07696e-06      4.98788      67.8609 
1.55814e-05      6.08782     -42.3373 
-8.04589e-06      9.91267     -94.6286 
-8.18512e-05     0.859943      0.00000 
-1.50080e-05      12.0599      122.952 
3.02178e-05      8.77657      115.222 
0.000120032      13.0617     -42.9537 
1.55212e-05      9.00902     -87.4555 
-2.28805e-05      7.66678     -48.7022 
0.000103398      12.7080     -52.9318 
1.54867e-05      12.8410      38.9945 
-2.31107e-05      10.2298     -61.3801 
3.72806e-05      7.65690      15.4541 
2.93985e-05      9.04840      130.699 
2.97801e-05      5.34591     -135.301 
-1.49524e-05      6.47248      149.552 
-1.50844e-05      8.75493     -65.7174 
2.23355e-05      13.3687     -41.9695 
-4.38264e-05      10.8634     -59.7048 
-4.38619e-05      12.7282     -134.747 
7.72174e-06      10.2107     -173.252 
-2.98653e-05      9.89086     -94.5211 
-1.49550e-05      7.34373      165.810 
7.66907e-06      8.30436     -114.777 
-1.50770e-05      6.86502     -137.481 
-1.50857e-05      5.01360      67.7304 
-2.24428e-05      12.0709      123.033 
-2.22446e-05      9.53781     -3.48664 
1.49564e-05      6.17905     -50.3806 
-6.63126e-05      7.69795     -15.9845 
7.65032e-06      3.24171     -91.7642 
-5.08875e-05      13.1745      40.7524 
-2.22956e-05      7.61162     -152.963 
-2.30426e-05      9.21667      75.4196 
-1.48396e-05      11.4881      146.504 
1.49433e-05      9.91712      161.054 
1.48679e-05      7.08888     -146.624 
7.55476e-06      8.53980      169.612 
1.48190e-05      9.91860     -133.121 
2.90919e-05      8.68353      40.3279 
1.47251e-05      9.12429     -83.2034 
-7.49670e-06      6.48996      149.643 
-1.46730e-05      7.03448     -111.167 
5.06196e-05      9.15794      161.804 
1.46875e-05      11.6327     -36.2608 
-1.46975e-05      10.2355     -60.6292 
7.95226e-05      3.24239     -92.1221 
-7.37759e-06      7.71671     -15.9446 
1.44229e-05      9.37631      135.088 
-2.18013e-05      7.33033      13.0874 
2.85246e-05      9.30311      157.902 
7.28503e-06      10.6583     -140.634 
2.14322e-05      8.88806     -98.9319 
7.27461e-06      12.8685      39.0073 
-2.18723e-05      10.1099     -157.798 
7.24623e-06      5.51871      158.084 
7.24750e-06      10.2131     -173.139 
7.22665e-06      1.11907     -61.1320 
-1.42251e-05      6.67814      9.82747 
1.42018e-05      8.91146      110.634 
7.18349e-06      7.16845     -148.924 
7.17045e-06      12.3625      47.9523 
1.46512e-05      6.05920     -42.3248 
-5.03281e-05      8.33427      157.864 
1.42203e-05      10.5183      21.2966 
-7.14421e-06      11.4033      32.1025 
-9.62935e-05      11.8995      32.9966 
6.72967e-05      9.00815     -87.5843 
-2.26015e-05      6.46726     -166.951 
-2.96133e-05      9.55729     -3.47952 
5.81460e-05      6.43084      26.8072 
1.47672e-05      7.22247     -88.5712 
-5.33695e-05      9.19779      75.3890 
-7.93017e-05      7.31060      13.1233 
2.16690e-05      9.82758      125.305 
1.45127e-05      7.92007      45.8176 
3.57984e-05      10.9712     -122.038 
-2.91829e-05      8.92711     -139.818 
1.44877e-05      5.37403     -135.305 
-2.86498e-05      9.82117      63.9048 
2.87067e-05      11.2248      143.988 
-2.86229e-05      10.7370     -67.7800 
7.26520e-06      8.33094     -114.841 
-7.24774e-06      2.18759      143.551 
-5.02153e-05      7.56699     -152.962 
2.84037e-05      7.55853     -25.8884 
2.15165e-05      7.44785      87.3841 
7.18783e-06      7.21306     -168.162 
2.89592e-05      4.02176      32.8213 
-3.67848e-05      8.86327      74.9602 
2.84220e-05      8.02312     -170.819 
7.10497e-06      7.18581     -149.008 
-1.41763e-05      4.75924     -115.385 
-1.40944e-05      8.39933     -64.1698 
1.40953e-05      5.31314     -70.8818 
-1.41903e-05      6.63659     -116.875 
-7.04112e-06      11.8825      33.0498 
-5.11021e-05      10.7338     -64.1497 
-6.98815e-06      13.4416      43.1903 
4.43837e-05      6.04479     -42.4493 
3.68810e-05      9.59570      103.255 
2.92911e-05      7.21724     -168.004 
-2.21800e-05      12.3284      142.647 
3.60808e-05      8.32276     -114.719 
-4.31966e-05      9.57631     -3.35117 
1.45461e-05      7.45081      63.0246 
-2.21075e-05      8.38262     -64.7173 
2.86752e-05      8.71209      40.3433 
3.61448e-05      7.83107     -176.924 
-2.13418e-05      6.08449     -108.196 
1.41802e-05      7.93420      45.7127 
-7.11800e-06      8.78575     -166.974 
-7.11000e-06      8.73196     -64.7871 
3.69585e-05      9.00735     -87.7082 
7.25615e-06      4.55925      174.712 
1.44835e-05      7.22300     -88.4105 
1.42401e-05      6.60281      62.1914 
7.07967e-06      8.21225      129.464 
1.41926e-05      5.40225      63.6271 
7.20865e-06      4.53982      174.689 
7.18593e-06      9.31470      29.5926 
-7.12940e-06      10.7481     -67.9208 
7.09794e-06      9.26405      44.0384 
7.06638e-06      12.7242     -52.9868 
7.04292e-06      12.0023      132.705 
6.99431e-06      5.90294     -49.6713 
6.97348e-06      9.39014      135.172 
6.97556e-06      7.33690     -162.058 
! Tentative model.
! Flux (Jy) Radius (mas)  Theta (deg)  Major FWHM (mas)  Axial ratio   Phi (deg) T \
! Freq (Hz)     SpecIndex
-7.57093e-06      9.19741      75.3896 
