! Center RA: 12 21 31.69052,  Dec: +28 13 58.50011 (2000.0)
! Established model.
! Flux (Jy) Radius (mas)  Theta (deg)  Major FWHM (mas)  Axial ratio   Phi (deg) T \
! Freq (Hz)     SpecIndex
 0.0356766     0.121759     -80.4216 
0.00683980     0.101837     -78.5245 
0.00506826     0.120062     -90.0000 
0.00383587    0.0828082     -75.8378 
0.00134029    0.0998015     -90.0000 
0.000270006    0.0633577     -71.3505 
0.00264500    0.0562440     -45.0000 
0.00427765    0.0446338     -26.9958 
0.00363326     0.121759     -99.5784 
0.00649640     0.219863      90.0000 
0.00421819    0.0397705      0.00000 
0.00406787     0.141777     -98.2159 
0.000376933    0.0286526      135.000 
0.00119428    0.0720098      146.476 
0.00133767     0.220795      95.2649 
0.00176086    0.0600310      0.00000 
0.00227007     0.140322     -90.0000 
0.00149089    0.0848966      135.000 
0.00164628     0.240977      94.8229 
0.00367709     0.809664      122.895 
0.000561520     0.128090      128.817 
0.00420579     0.159832     -90.0000 
0.000417974     0.141777     -171.784 
0.00150980     0.144435      123.773 
0.00252558    0.0828082     -14.1622 
0.000139515     0.260423      94.4620 
0.00172195     0.145849     -164.176 
0.00118315     0.282706      98.0871 
0.00289821     0.152624      113.162 
0.00219387     0.837701      123.306 
0.000258339     0.134233      116.565 
0.00202109     0.826750      122.132 
0.00199190     0.306099      101.310 
0.00178887      2.09972      107.749 
0.00118747     0.329594      104.100 
0.00218711     0.101837     -11.4755 
0.000700353     0.200353      90.0000 
9.35041e-05     0.164706     -166.027 
0.00104262     0.349279      103.290 
0.000355775     0.152624     -156.838 
0.00172430     0.161111     -82.7757 
0.000837647      2.12523      108.102 
8.77325e-05     0.865779      123.690 
0.00105986     0.181229     -83.5812 
0.000778852     0.956176      127.347 
0.000328375     0.170734     -159.414 
0.000318956     0.392593      104.727 
0.000160092     0.782708      122.471 
7.96319e-05     0.170734      110.586 
0.000788318     0.201375      95.7743 
7.86776e-05     0.871214      121.869 
0.000745683     0.161111      97.2243 
0.000510913    0.0633577      161.350 
0.00222431     0.181229      96.4188 
0.000592052    0.0600310      180.000 
0.00103889      2.15697      107.262 
0.000344721    0.0633577     -161.350 
0.000114110    0.0896014     -153.650 
0.00215871     0.854707      122.560 
0.000330723     0.100252     -143.216 
0.000532503      2.17633      107.104 
0.000212264     0.100252     -126.784 
0.000104514    0.0446338      153.004 
0.000602555     0.116465     -121.027 
0.000502091      2.19570      106.949 
0.000473276    0.0562440      135.000 
0.000100865     0.280627      94.1402 
0.000196631     0.322129      97.0919 
0.000379612      2.21437      106.802 
9.63983e-05     0.345185      100.015 
0.000998444     0.126477     -108.327 
0.000373617     0.365154      99.4623 
0.000359682      2.10735      106.551 
0.000239984     0.145849      105.824 
0.000278285     0.793353      123.660 
0.000179764    0.0720098      123.524 
0.000527822      2.23377      106.651 
0.000527544     0.882079      122.987 
0.000779751     0.407936      101.351 
0.000439646     0.765692      123.285 
8.95223e-05      2.10167      106.021 
8.54026e-05      2.13479      103.001 
0.00135144     0.748838      124.136 
0.000863980     0.899141      122.284 
0.000240950      2.13033      102.470 
0.000318296      2.08794      106.709 
0.000473303      2.25903      106.996 
0.000544414    0.0446338      116.996 
8.16800e-05     0.325253      100.636 
8.11627e-05     0.431906      103.360 
0.00114832     0.450910      102.787 
0.000425972      2.12604      101.937 
0.000288415     0.184432      102.453 
0.000286731      2.09363      107.220 
0.000357223      2.28343      107.321 
0.000947894     0.915694      121.632 
0.000142844    0.0202604      90.0000 
7.08565e-05     0.286260      102.105 
0.000770295     0.291183      106.006 
0.000591249    0.0286526      45.0000 
0.000198904      2.30278      107.171 
0.000812161     0.732771      124.992 
0.000424414      2.12209      101.421 
0.000126696      2.30884      107.652 
0.00131516     0.470689      102.241 
0.000121736     0.164706      103.973 
0.000417649     0.933005      120.980 
0.000296967      2.32744      107.506 
0.000121260    0.0446338      26.9958 
0.000121045     0.759958      125.354 
0.000236583      2.10599      108.274 
0.000119637     0.944023      126.369 
0.000886137     0.297155      109.625 
0.000219990     0.968601      128.299 
0.000111484      2.33361      107.981 
0.000164298      2.11218      108.776 
0.000539700     0.940357      119.286 
0.000459232      2.11818      100.884 
0.000162853     0.164706     -76.0271 
5.50554e-05      2.04236      104.164 
0.000159322      2.35289      107.828 
0.000401772     0.980812      129.194 
0.000252931      2.14465      109.627 
0.000154822    0.0802914      0.00000 
0.000150328      2.01799      103.768 
0.000438020    0.0828082      104.162 
0.000246808      2.35894      108.279 
0.000330898     0.744131      126.223 
0.000999936     0.184432     -77.5470 
0.000143672     0.349279      76.7101 
0.000920050     0.957421      118.714 
0.000186317      2.15128      110.116 
0.000122439     0.101837      101.476 
9.20837e-05      2.09828      100.988 
0.000522521     0.993740      130.099 
0.000749150     0.490508      101.740 
0.000225076      2.38457      108.589 
4.64727e-05      2.01326      103.208 
4.56808e-05     0.161670     -150.222 
0.000219701     0.304558      113.217 
0.000303987     0.134233     -26.5651 
0.000253994     0.354273      73.6379 
8.82673e-05      1.99354      103.341 
0.000478343     0.716267      125.921 
0.000173847      2.15833      110.621 
0.000712132      2.09452      100.444 
0.000278653     0.178866     -153.327 
0.000166943      2.39086      109.032 
4.21795e-05      1.96994      102.898 
0.000419685     0.323277      111.801 
0.000247420      2.11444      100.345 
4.17365e-05      2.16528      111.105 
4.13756e-05      1.94589      102.471 
0.000160885      2.19150      111.408 
0.000199212     0.126477     -18.3275 
0.000234254      1.92180      102.012 
0.000222154     0.984957      119.182 
0.000156948      2.41594      109.335 
0.000440860      1.00691      130.981 
0.000115230     0.341468      69.4145 
0.000260177      2.19898      111.899 
6.68869e-05     0.161670     -29.7779 
0.000184126      2.42273      109.788 
0.000543382     0.152624     -23.1616 
0.000144152     0.360505      70.5467 
0.000178643      1.90272      102.134 
0.000603845     0.509625      101.293 
0.000726322     0.204262     -78.7726 
0.000235963      2.20633      112.370 
0.000571443     0.197181     -155.971 
0.000137363     0.699961      126.894 
0.000203197      2.42940      110.220 
0.000470002     0.349107      66.3001 
0.000434042      1.89856      101.536 
3.39655e-05      2.23211      112.660 
0.000955733     0.331336      115.056 
0.000669847      1.03443      131.088 
0.00109871     0.672210      126.512 
6.42592e-05      2.26632      113.390 
9.55161e-05      1.01218      119.587 
0.000210037     0.912809      118.798 
0.000153048      2.43648      110.668 
0.000183645      3.64849      127.874 
0.000119185      2.18020      112.098 
9.09628e-05      2.42551      111.278 
9.01193e-05      2.29298      113.654 
0.000146935     0.145849     -15.8239 
3.04983e-05      2.17265      111.603 
0.000220189      1.02920      119.051 
0.000317095      2.51368      105.692 
0.000270620     0.994244      74.8625 
0.000237564      1.20033      66.4157 
0.000163075      3.64505      128.321 
8.23815e-05      2.31900      113.919 
0.000331684     0.178866     -26.6725 
2.80978e-05      2.44370      111.112 
0.000563221     0.357396      63.4349 
5.55406e-05      2.15383      111.801 
0.000215310      2.09107      99.9187 
0.000966496      1.87872      101.660 
0.000990911     0.656037      127.565 
0.000157084      2.43266      111.706 
0.000284990     0.885686      118.324 
5.35230e-05      2.16144      112.300 
5.24857e-05     0.107434      111.727 
0.000222869     0.529508      100.864 
0.000533954      3.84688      135.000 
7.54655e-05     0.141777     -8.21587 
7.61539e-05      2.16892      112.777 
5.06881e-05      2.30118      114.116 
0.000256587     0.215843     -158.162 
4.97612e-05      3.63252      128.070 
0.000114345      2.63764      130.697 
0.000162964      1.05677      119.477 
0.000285189      4.88115      123.297 
7.14611e-05      1.01381      75.1615 
0.000452562      1.04786      131.923 
4.81443e-05      2.15094      112.978 
0.000157952      2.45080      111.538 
0.000543214      2.07185      100.012 
0.000110745      3.62976      128.512 
0.000110989      2.32698      114.358 
7.04154e-05      3.84087      125.674 
0.000158276      3.83258      135.214 
6.46350e-05      3.65999      126.555 
4.53892e-05     0.116465      121.027 
9.08680e-05     0.989328      75.9532 
5.48836e-05     0.322315      119.728 
0.000284008     0.223431     -79.7468 
6.58497e-05     0.140322      0.00000 
0.000483715      2.53319      105.568 
0.000398944      3.12839      120.342 
2.31488e-05      2.15893      113.473 
0.000265221     0.188432     -31.9812 
0.000173444      3.82909      125.428 
4.44978e-05      2.30922      114.558 
6.63929e-05      3.64374      126.745 
0.000559257      2.62447      130.361 
2.26390e-05      2.16708      113.965 
0.000171689      1.22674      65.9592 
0.000279527      4.86486      123.423 
4.40163e-05      2.13573      111.996 
0.000104350      3.06450      125.975 
0.000296888      2.14402      126.661 
0.000201762      1.00899      76.2325 
0.000150827      3.04813      126.198 
2.13405e-05     0.737659      122.833 
2.13086e-05      2.17508      114.434 
0.000211441      1.04695      118.512 
0.000466520     0.209153     -163.320 
0.000389997     0.366905      60.6039 
6.14233e-05      2.12822      111.490 
0.000116431      2.45831      111.977 
0.000262438      3.84561      125.253 
2.05907e-05     0.761721      119.899 
7.77350e-05     0.141141      135.000 
5.81570e-05     0.778695      119.183 
3.89413e-05      2.31772      115.014 
0.000159418      3.64841      126.309 
3.71584e-05      2.18354      114.918 
7.44919e-05      3.61718      128.261 
3.89254e-05      2.36403      119.388 
1.92605e-05      2.12115      111.000 
5.61056e-05      4.82079      124.351 
0.000665570     0.421988      31.4006 
0.000211220     0.769370      117.915 
0.000249969      1.75080      103.887 
0.000243297      2.39164      119.573 
0.000121555      2.09501      110.681 
0.000108411      4.62155      122.454 
0.000371690      3.11092      120.530 
0.000671249      1.07647      132.005 
0.000393383     0.984607      77.0970 
0.000105236     0.156126      140.265 
1.81678e-05      2.10225      111.198 
0.000258290      3.07060      133.158 
1.78834e-05      4.59884      123.830 
9.12690e-05      2.43648      106.202 
1.75366e-05      4.43312      122.474 
4.52299e-05     0.533698      103.001 
0.000252620      4.41604      122.615 
1.73803e-05      2.34545      114.154 
0.000410785      2.12780      126.987 
8.83724e-05      3.20663      113.530 
6.75492e-05      4.81515      124.678 
1.72971e-05      1.00437      77.3551 
0.000206584      3.83439      125.015 
0.000371962     0.227911     -74.7283 
0.000128355      2.22624      98.7829 
3.34362e-05      2.47711      111.801 
0.000186240     0.199903     -36.9129 
0.000153238      4.62785      122.108 
0.000149875      3.81822      135.000 
9.41975e-05      1.05578      117.057 
8.66182e-05      2.35382      114.604 
0.000152486      2.18826      120.795 
1.65172e-05      3.61393      128.712 
0.000837746      4.23897      124.813 
0.000233144     0.903572      117.714 
0.000158708      3.05265      125.667 
0.000137762      4.82671      124.876 
0.000415668      3.19595      113.995 
1.61792e-05     0.184676      139.449 
1.60867e-05      4.60973      124.032 
0.000104925      2.53870      106.008 
7.69437e-05     0.172194      144.578 
8.57683e-05      3.60129      128.460 
0.000114897      2.07607      110.878 
7.53642e-05      3.66475      126.121 
0.000592252      2.40133      119.978 
0.000294097      1.93492      119.737 
0.000298076     0.876255      117.158 
4.44490e-05      2.49593      111.629 
7.28967e-05      1.41049      108.165 
9.40564e-05      1.25286      65.4765 
4.13474e-05      4.62110      124.240 
8.24186e-05      1.74605      103.242 
1.46331e-05     0.212689      138.719 
0.000199967      3.81781      125.189 
6.73317e-05      2.37225      114.400 
1.44840e-05      2.24552      98.7069 
0.000125477      1.42904      107.921 
0.000132615     0.199903      143.087 
0.000238146      2.24255      98.1952 
0.000120613      4.83832      125.073 
0.000300468      2.63402      113.256 
0.000202510      4.39962      122.752 
0.000341364      3.12088      120.839 
0.000150349      3.29155      110.637 
9.01748e-05     0.384685      62.0853 
0.000104996      1.31730      120.085 
0.000100445     0.349107      113.700 
0.000268126      3.65285      125.865 
0.000274591      1.86992      65.3581 
8.54341e-05      1.05578      62.9432 
0.000181195     0.980435      78.2085 
2.57429e-05      4.88745      122.975 
4.79249e-05      2.39003      114.207 
5.05412e-05      2.05785      111.072 
0.000121046      1.63006      96.3431 
3.62684e-05      1.04672      116.069 
0.000196793      1.88495      94.2693 
1.25389e-05      4.63253      124.447 
4.85103e-05      2.06522      111.597 
0.000172477      4.89810      123.167 
5.64522e-05      3.58873      128.207 
1.22846e-05      2.43111      105.761 
9.24709e-05      4.83364      125.395 
3.44219e-05      4.61751      121.903 
8.38595e-05     0.161111      7.22432 
0.000248157      1.32719      120.814 
0.000631555      2.88727      102.396 
7.88290e-05     0.204262     -168.773 
0.000267374      3.09872      133.165 
0.000164887      2.55199      105.450 
0.000163499      3.80617      124.940 
7.30684e-05      4.61584      124.589 
0.000318217      3.10707      106.457 
0.000155036     0.216445      146.310 
0.000263712      2.41234      105.887 
0.000116760      2.04640      111.805 
2.23343e-05     0.553458      102.529 
1.15783e-05     0.228306      142.075 
1.15017e-05      2.03896      111.277 
0.000336414      4.07128      120.725 
1.13879e-05      4.84956      125.261 
0.000333135      1.62795      95.6344 
0.000123957      1.17614      125.312 
0.000116436      1.06480      62.0083 
2.16971e-05      2.26555      98.6293 
0.000195754      2.19831      121.232 
0.000305560      2.64209      113.660 
0.000117345     0.961344      77.9708 
0.000141899      3.12651      106.352 
1.07763e-05      3.08398      133.423 
0.000229611      2.26260      98.1220 
0.000160009     0.722868      85.2364 
0.000152251      4.84541      125.590 
0.000375235     0.956176      142.653 
7.25212e-05     0.227911     -164.728 
5.05469e-05      1.24745      102.013 
0.000134801      3.36824      105.851 
9.50272e-05      4.63473      121.770 
1.02027e-05      1.03798      115.064 
0.000282640      1.91735      120.037 
0.000392309     0.432889      33.6901 
3.74065e-05      3.57669      127.961 
0.000127414      2.60964      130.639 
0.000121014      1.64811      95.5652 
9.06463e-05     0.205897      151.006 
8.73468e-05      4.42659      122.828 
9.66018e-06      1.04771      113.646 
5.45938e-05      4.25500      124.663 
0.000102950      1.26654      101.829 
5.20112e-05      1.27132      65.8555 
0.000460442      2.02760      112.018 
0.000293499     0.234065     -69.9384 
7.85762e-05      3.19275      116.402 
8.95226e-06      3.04088      125.357 
7.98063e-05      3.09413      120.714 
0.000191309     0.721469      86.8400 
0.000211053     0.223431     -169.747 
9.68001e-05      1.33487      119.649 
4.59591e-05      2.82341      124.036 
0.000220082     0.612198      101.310 
2.46769e-05      1.03975      112.623 
6.97144e-05     0.184432      12.4530 
7.88281e-05     0.957327      79.1569 
2.71721e-05      2.59697      130.312 
1.67220e-05      3.56427      127.705 
9.88301e-05      1.07446      61.0542 
0.000107797     0.212689     -41.2810 
0.000141486      4.85723      125.785 
0.000154307     0.233573      149.068 
0.000150921      3.20181      116.727 
0.000180593      1.86408      93.6929 
0.000151712     0.340058      118.035 
1.52141e-05      4.62694      124.788 
1.58015e-05      3.56847      127.258 
0.000134610      3.79503      124.699 
0.000122486      2.28558      98.5531 
6.36312e-05      4.41021      122.965 
0.000136820      1.87845      64.7964 
8.09049e-05      1.08963      132.767 
0.000101195      3.38157      105.430 
6.90123e-05      3.55624      126.998 
3.51067e-05      1.03212      111.585 
2.16304e-05      3.04066      135.800 
0.000100375      1.26268      100.963 
0.000209688      1.34463      120.372 
2.13837e-05      3.02709      136.065 
1.42185e-05     0.572519      102.105 
7.54201e-05      1.09162      76.2408 
0.000113255      2.28266      98.0502 
8.47898e-05      2.98768      121.023 
7.73962e-05      4.62409      121.557 
4.92888e-05     0.937436      78.9239 
3.03065e-05     0.412159      60.9150 
0.000132221     0.223834      153.521 
0.000177141      1.18797      126.110 
0.000172202      3.04171      136.329 
6.17552e-05      1.08441      60.1174 
4.69049e-05      4.91507      123.037 
6.33977e-05      3.69208      136.095 
5.78691e-05     0.204262      11.2274 
2.93714e-05      4.61031      124.932 
1.89147e-05      2.36232      115.051 
8.10477e-05      3.64101      125.606 
8.17832e-05      2.14340      67.5020 
9.07280e-05      4.86866      125.971 
3.00251e-05     0.582967      149.011 
3.94538e-05      2.81212      123.694 
4.46097e-05      1.02511      110.571 
4.16116e-05      3.55237      127.456 
6.18008e-06      4.39322      123.109 
9.21679e-05      1.10459      132.054 
0.000111096      2.16144      67.6999 
4.93549e-05      2.61188      130.035 
0.000185296      4.17215      126.818 
5.94807e-06      1.48627      107.209 
1.16801e-05      4.38741      123.475 
0.000138594      1.28258      100.791 
7.09263e-05      3.39599      105.022 
4.66514e-05      2.38069      114.845 
5.94596e-05      1.90306      123.859 
0.000122448     0.894329      116.565 
6.64339e-05     0.572799      150.749 
2.70710e-05      1.09426      59.2317 
2.17327e-05      1.62042      114.049 
3.70650e-05      2.66066      113.485 
1.11054e-05      3.54409      126.736 
0.000148313      2.30488      98.4810 
2.10575e-05      2.11225      127.305 
2.61639e-05      2.38734      105.552 
1.57982e-05      3.12681      133.191 
3.64608e-05      3.54008      127.195 
2.08359e-05      1.09662      75.2125 
1.55395e-05      4.36039      124.341 
2.87923e-05     0.933756      80.1441 
7.00010e-05      1.62846      114.676 
1.01889e-05     0.592344      101.694 
1.51851e-05      1.10476      58.3288 
7.93207e-05     0.913801      79.9266 
1.51424e-05      2.86748      102.483 
4.97144e-06      3.41040      104.605 
4.96019e-06     0.438758      59.9270 
0.000354478      5.10549      134.845 
0.000334915      6.63950      114.940 
0.000211766      3.65991      139.432 
1.19581e-05      4.36823      114.337 
0.000100620      4.28575      115.125 
0.000164991      4.38670      114.228 
0.000312194      5.09122      134.684 
2.18501e-05      6.62113      115.014 
0.000141695      4.55718      112.173 
8.25740e-05     0.820423      88.5849 
0.000325913      6.62973      115.173 
0.000149131      1.11549      75.4683 
4.94614e-05      2.39841      114.649 
6.70355e-05      2.52156      111.893 
3.52590e-05      1.01158      108.422 
7.81231e-05     0.360755      3.21949 
9.57891e-06     0.740950      86.9232 
4.47885e-05      5.09167      135.000 
0.000154180     0.563176      152.547 
7.21768e-05     0.216445     -33.6901 
0.000110977      1.29890      99.7453 
4.11746e-05      1.30249      100.624 
0.000120966      2.90296      101.934 
2.54079e-05      2.71598      126.620 
1.74424e-05      2.00195      111.690 
8.33091e-05      4.89257      126.355 
5.92666e-05      1.86288      93.0710 
8.40517e-05     0.360186      0.00000 
3.61465e-05      2.57152      105.330 
5.75391e-05      1.36215      119.941 
5.72036e-05      4.45689      125.689 
2.17099e-05      2.41152      120.395 
4.16600e-05      4.88790      126.680 
4.88482e-05      1.88717      64.2399 
3.51643e-05      1.00559      107.367 
4.15940e-05      2.70394      126.275 
4.79794e-05      1.22094      124.989 
2.67184e-05      3.80026      124.274 
4.70410e-05     0.910591      81.1354 
3.45088e-05      1.96041      126.282 
3.32842e-05      3.05585      136.582 
1.93991e-05      3.52044      126.218 
1.94951e-05      3.41953      103.878 
1.29355e-05      4.26741      115.240 
1.30452e-05      1.77048      103.730 
1.93479e-05      3.36438      127.752 
1.30478e-05      2.40853      114.010 
1.26343e-05     0.912496      115.996 
6.40393e-06      2.88314      102.018 
1.24506e-05      2.50347      112.060 
6.31528e-06      4.74002      113.107 
1.24320e-05      1.97247      126.757 
6.17603e-06      4.73211      112.881 
6.17740e-06     0.228306     -37.9245 
-1.83321e-05      3.90804      129.390 
6.11023e-06      3.19353      115.602 
6.11559e-06      2.62288      130.975 
6.10980e-06      3.91808      133.968 
-0.000279908      5.90927     -12.9068 
0.000386402      5.38518     -84.4586 
-0.000355066      3.34083      70.0510 
-0.000329114      5.89105     -3.50532 
-0.000347364      12.7712     -44.4287 
0.000303160      6.69057      119.555 
-0.000119060      10.2143     -176.968 
-0.000394414      11.7058      55.4410 
-0.000288863      7.65550      47.0138 
-0.000416398      13.4322     -49.4088 
-0.000220169      9.75146      33.6240 
-0.000355286      4.95280     -31.1275 
-0.000150542      8.80358      138.961 
-0.000253599      7.13635     -72.8835 
0.000344766      9.29186     -74.6495 
-0.000177676      7.54471     -143.950 
-0.000244983      9.76021      112.150 
-0.000216433      8.34512     -107.003 
-0.000307298      10.9391     -153.621 
-0.000175278      7.96324     -119.657 
0.000135043      13.6914     -45.9460 
3.78979e-05      7.86587      169.746 
-3.77879e-05      4.68640      98.1003 
-3.76714e-05      10.6395      136.678 
0.000173862      5.41557     -114.196 
-3.74873e-05      8.30127      20.0074 
-7.18387e-05      3.35261      70.4782 
-0.000105278      11.1920      143.355 
0.000170575      13.8184      42.3017 
-0.000104915      12.1962     -37.0024 
-3.67335e-05      10.6247      136.603 
-0.000103494      9.65185      52.9154 
-0.000139394      10.5229      58.9977 
0.000101919      9.90913     -59.2944 
-7.06534e-05      9.80340      176.023 
0.000134827      7.84235      169.865 
0.000103725      11.5781     -119.266 
-0.000128076      12.2241     -37.0183 
-0.000105119      10.9352     -58.4597 
-0.000231343      10.6534      136.598 
0.000132218      7.87270      36.1097 
-0.000161753      8.31271      19.8302 
-0.000101182      5.94602      17.2138 
-6.83327e-05      8.84177      123.655 
0.000227160      11.3206     -53.8380 
-6.58741e-05      9.05462      136.612 
0.000129024      3.51028     -119.338 
-6.59558e-05      12.7567     -44.4924 
-3.43867e-05      8.96028     -127.384 
3.42989e-05      9.64360     -76.0784 
-6.57119e-05      5.88502     -12.7586 
0.000159362      8.54336     -34.5080 
-9.73929e-05      8.13936     -153.747 
-9.86481e-05      12.9145     -46.0664 
0.000222398      2.30795      81.0216 
9.76793e-05      7.08543     -83.5177 
-0.000160362      7.56414      59.8434 
-6.52230e-05      4.47254     -13.9710 
-9.58463e-05      5.37334     -150.575 
-0.000125999      9.90954     -94.3994 
6.53497e-05      9.72268     -107.355 
-3.36612e-05      7.71592      176.286 
-9.60185e-05      6.45983     -119.898 
-0.000127326      6.03043      99.9312 
0.000126780      12.4519     -131.678 
0.000218129      8.40169      101.259 
-9.70372e-05      10.7988      149.873 
-3.33227e-05      8.92915     -67.3420 
9.42498e-05      1.74461     -61.9580 
-3.32849e-05      12.0766     -124.269 
8.63442e-05      9.21304     -172.766 
-6.30018e-05      5.46332      68.9760 
-0.000125445      10.9080     -58.4968 
9.52973e-05      10.3033     -147.606 
-6.26792e-05      8.95244     -113.013 
-3.27076e-05      9.41675      93.4080 
-6.32162e-05      9.34645     -113.051 
-0.000155901      10.0100      95.7350 
-0.000123741      12.0927     -124.217 
9.28689e-05      12.2383     -54.3092 
6.28982e-05      8.81240      162.840 
-6.19984e-05      8.80756     -24.4120 
-6.23995e-05      9.82503      175.914 
-9.30322e-05      7.73614      176.296 
-9.23120e-05      5.57492     -74.8152 
9.24542e-05      8.26173     -147.658 
-0.000121575      9.41561      93.2895 
-6.17662e-05      7.63834     -46.2737 
-3.14379e-05      9.87175     -54.7322 
-6.16949e-05      10.8359     -113.725 
6.04677e-05      3.24393     -143.276 
3.10780e-05      13.1759     -138.447 
-6.10662e-05      7.95906     -81.9081 
-0.000247068      9.76945     -112.890 
-3.08788e-05      10.2575     -69.6932 
-6.01873e-05      7.56110     -144.040 
-6.07090e-05      10.7813      149.819 
-6.03919e-05      12.9285     -46.1264 
-6.03070e-05      4.27868      95.3636 
-3.05814e-05      11.2005     -27.6638 
-6.00872e-05      8.91654      122.263 
-0.000113941      10.2304     -136.822 
-3.03405e-05      8.83110      138.948 
5.93881e-05      7.34796     -94.9974 
3.01996e-05      10.6921      142.829 
2.99435e-05      10.9195     -136.041 
2.98195e-05      13.3906     -42.5791 
2.98348e-05      9.19369     -172.751 
2.96633e-05      10.6263     -154.112 
-2.95633e-05      9.49836      59.9267 
2.95182e-05      8.57786      153.554 
2.93562e-05      8.41766     -48.6574 
-2.92957e-05      4.22540     -118.873 
2.92725e-05      7.05007     -146.219 
-2.91870e-05      10.8832      39.4829 
-0.000185042      2.72908     -118.439 
-5.42761e-05      2.73774     -117.878 
0.000131146      2.88483     -73.0781 
0.000168414      12.8437     -133.866 
0.000142182      10.1812      144.031 
4.99632e-05      7.34578      24.9603 
0.000255418      10.5889     -41.0923 
7.07545e-05      11.4839     -59.5493 
-6.78206e-05      6.48903     -71.6740 
0.000151094      1.51906     -69.1657 
0.000436891      12.6853      134.681 
6.96975e-05      1.92192     -2.39433 
0.000163249      7.33757      24.8222 
0.000107343      2.90422     -73.1944 
0.000107105      9.68676      63.1174 
-0.000375645      10.6126     -126.417 
2.30307e-05      7.03393      51.6972 
4.04073e-05      3.82497      150.216 
-0.000101677      6.50827     -71.7301 
-0.000439898      13.5712     -42.9117 
2.23212e-05      7.47302     -167.638 
0.000260321      12.3667      51.9619 
6.05175e-05      6.45108      145.866 
4.25709e-05      1.92118     -1.79061 
6.13109e-05      3.81495      150.480 
6.19428e-05      7.49281     -167.672 
4.09295e-05      7.02185      51.8221 
8.01764e-05      11.4568     -59.5872 
-9.64530e-05      10.9627     -58.4282 
-0.000123583      9.87529      112.254 
7.63934e-05      9.24450      88.2650 
0.000127054      6.24612      96.9901 
-7.47560e-05      11.2845      30.9278 
0.000248684      10.1931      143.939 
-5.74463e-05      9.76159     -112.780 
-0.000287192      8.98885      73.9843 
5.74139e-05      1.90093     -1.80969 
-3.80031e-05      2.72171     -119.010 
6.33318e-05      9.50964      23.8142 
-0.000270209      8.81564     -24.5275 
1.96511e-05      6.66609      28.1055 
-5.70634e-05      10.5793      74.2031 
3.70762e-05      12.8296     -133.926 
0.000121216      7.75839     -11.6001 
-3.63804e-05      11.7240      29.5397 
7.08124e-05      10.7638      135.980 
8.29807e-05      7.46887     -167.785 
-0.000157233      11.8230      44.7274 
0.000205862      13.9486     -43.4894 
-1.86664e-05      4.64804      143.574 
-9.56630e-05      10.4927     -165.538 
-0.000176178      14.1867     -44.0292 
-0.000215821      4.54124      72.0411 
5.24476e-05      6.67530      28.2532 
1.82611e-05      9.10014    -0.377966 
5.11417e-05      11.6975     -53.9718 
-6.68277e-05      9.99165      105.677 
-1.78914e-05      6.98893      109.213 
0.000213533      1.53801     -69.4341 
-0.000164712      9.21652     -142.582 
1.77575e-05      5.54207     -73.0028 
-5.07941e-05      10.3950      44.4560 
-7.94595e-05      4.59078      21.1962 
6.53106e-05      7.12270     -83.7158 
5.01389e-05      6.74541      123.879 
-0.000227001      10.5848      74.0976 
5.95702e-05      9.69594      63.0106 
6.45695e-05      4.30882      176.276 
-0.000167577      13.5575     -42.8490 
4.73746e-05      9.10003    -0.250405 
7.70945e-05      7.42507     -45.5446 
-1.71023e-05      12.0356      44.5302 
-0.000118442      10.0473     -83.3697 
8.69892e-05      12.7080      52.9318 
1.69782e-05      1.90093      1.80969 
-6.24999e-05      9.71558     -81.9550 
-0.000256440      11.0692      22.8574 
-3.20870e-05      10.7908     -34.8096 
1.67914e-05      10.5173     -50.7126 
0.000145617      7.76248     -11.7466 
7.37359e-05      10.5761     -41.0127 
-3.21318e-05      9.17078      157.291 
-7.72697e-05      11.8458     -37.7976 
4.36917e-05      12.8155     -133.861 
-0.000229064      10.5313     -66.2605 
-4.63860e-05      11.6728     -129.088 
-4.53241e-05      5.84154      32.9838 
-4.72618e-05      3.54409     -16.3936 
-9.46163e-05      6.97722      109.423 
-0.000101775      7.00692      114.809 
9.16514e-05      10.7443      115.468 
-3.11629e-05      8.81693      50.0614 
4.08215e-05      12.1679     -143.488 
3.12966e-05      1.88014      1.21207 
-8.04864e-05      10.9525     -58.5152 
-8.40314e-05      13.5501     -138.830 
-1.59386e-05      9.73519      28.1967 
-8.71995e-05      8.13171      8.62959 
-5.93732e-05      8.98285     -160.353 
-3.07344e-05      5.22433     -40.0300 
1.57424e-05      6.77019     -156.310 
7.66414e-05      10.1290     -20.9391 
4.52654e-05      7.28379     -83.6950 
1.55952e-05      6.51636      52.3542 
5.76761e-05      9.47034     -92.6613 
6.89764e-05      8.40841      2.58817 
-1.54935e-05      10.4095      44.3779 
3.00190e-05      10.1807     -122.567 
1.52963e-05      10.5608     -41.0848 
-0.000100787      5.39934     -171.480 
9.10656e-05      11.7404      142.544 
-9.91108e-05      9.14819     -36.6424 
2.94372e-05      13.2362      39.7282 
-1.49668e-05      8.50905     -150.424 
2.82524e-05      10.3552     -11.1349 
-0.000329529      11.8054     -130.326 
0.000153155      12.1563     -143.562 
1.49213e-05      7.77738      35.8969 
2.92994e-05      9.80204     -15.6237 
7.74847e-05      7.33639      37.2438 
-4.14623e-05      10.4231      44.4546 
-0.000221115      10.0639      95.3607 
-7.62050e-05      3.55789     -15.9886 
-6.55466e-05      7.67798     -28.3008 
6.58155e-05      7.10256     -83.6979 
-1.46908e-05      4.57190      21.2880 
-7.39036e-05      9.51873      59.7156 
0.000299730      12.1726     -143.619 
4.10714e-05      8.25332      59.8939 
8.97933e-05      11.8481     -33.8501 
-1.45392e-05      3.56215      49.7849 
0.000323541      13.4470      138.556 
6.48177e-05      7.81885      169.985 
-1.44357e-05      5.11828      166.667 
1.43413e-05      10.7778      136.052 
-9.00681e-05      10.1091     -150.748 
1.43750e-05      7.21813      13.4598 
2.70274e-05      6.63463      124.312 
-0.000151580      10.9317      54.6822 
8.18392e-05      11.7540      128.645 
-7.61727e-05      11.1281     -27.3927 
7.51161e-05      9.82155     -15.5918 
-6.42501e-05      9.56148     -63.2761 
9.94397e-05      12.1522     -143.434 
-2.54786e-05      10.8635      65.1804 
9.75392e-05      7.30174     -83.8705 
2.79617e-05      10.7527      115.562 
0.000127310      10.0868      48.3746 
-5.07801e-05      7.00158     -67.3183 
-2.71260e-05      10.1262      106.289 
4.02730e-05      10.1636     -122.628 
-6.16596e-05      5.04843     -36.4594 
-2.53439e-05      10.5076     -166.571 
-5.20435e-05      12.1507     -40.9283 
2.64888e-05      9.15959      101.972 
-6.37229e-05      10.9568     -153.435 
1.37425e-05      6.22917      97.1901 
-3.87457e-05      5.06050     -36.6439 
2.30337e-05      9.82702     -15.7056 
5.09847e-05      13.2518      39.6722 
1.37611e-05      11.4945     -117.234 
-0.000100373      14.2008     -44.0880 
0.000109169      12.4351      139.959 
2.45064e-05      10.4871     -20.5421 
-1.35732e-05      10.4019      163.237 
2.55758e-05      6.60161      73.8166 
2.63148e-05      12.8812      39.0773 
-1.34789e-05      3.58873      51.7930 
0.000223085      13.9344     -43.5446 
-0.000394963      13.3545      130.992 
2.58632e-05      7.78928      36.0176 
-8.40429e-05      10.1250     -157.590 
-9.67504e-05      9.05214     -170.977 
0.000243433      10.3482     -118.892 
2.63364e-05      10.7615      115.659 
-1.32704e-05      5.23690     -40.1935 
-7.24257e-05      4.58377      20.9688 
-6.01296e-05      11.5673     -138.927 
5.71556e-05      7.93870      114.564 
-2.59258e-05      8.12012     -79.3546 
-2.61710e-05      11.9017     -122.303 
-7.24672e-05      9.41949     -145.467 
1.30942e-05      7.43955     -45.6538 
-2.52041e-05      11.8298     -37.8578 
2.54998e-05      6.61884     -128.501 
2.46831e-05      10.5773      105.349 
6.47984e-05      10.5475     -41.0019 
-2.47720e-05      5.83053      32.8167 
1.29785e-05      11.4765     -117.280 
-8.31332e-05      9.46397      30.1940 
0.000180359      10.4186     -122.774 
0.000215370      11.3919     -143.351 
-0.000189922      13.5380      133.623 
-0.000134066      11.9121     -122.383 
-0.000217797      9.17594     -36.6712 
-6.70876e-05      3.98205      10.1262 
3.66977e-05      4.31018      176.007 
0.000112376      11.3327     -63.9304 
0.000109084      9.79680     -15.5138 
8.02827e-05      10.7703      115.756 
-1.26483e-05      8.96448     -160.311 
3.67957e-05      4.69899     -95.1306 
0.000142412      13.9163     -135.581 
-5.80638e-05      8.15174      8.60822 
-8.01962e-05      10.4078      163.130 
-7.99968e-05      4.11268      144.303 
1.23826e-05      4.01836      67.7694 
-2.41741e-05      8.13929     -79.3800 
-1.23076e-05      11.1101     -27.4408 
-1.22943e-05      8.88892     -109.864 
-1.22917e-05      9.16385     -36.5696 
-0.000137072      10.0841      95.3500 
-1.22483e-05      9.90159      56.5363 
6.91735e-05      12.6996      134.746 
1.21985e-05      9.46946     -92.5434 
-1.21699e-05      10.4660      44.5352 
-2.28327e-05      7.15588      98.3570 
3.48506e-05      10.1527     -122.532 
3.51405e-05      4.65198     -101.406 
1.20795e-05      8.24355      60.0112 
-0.000257999      10.8366     -65.2326 
-1.19401e-05      8.52603     -150.488 
0.000108359      12.3827      52.0197 
-0.000273216      10.9435      54.5957 
-1.19207e-05      3.59269      52.2373 
-8.54826e-05      11.5211      140.423 
1.18612e-05      13.7613     -134.470 
1.18021e-05      7.42540     -45.7656 
6.62995e-05      4.71666     -94.8643 
0.000401095      10.6426     -164.186 
-1.17311e-05      10.4731     -165.511 
-2.31315e-05      3.92328      2.33485 
-5.39291e-05      6.16420     -127.353 
9.40744e-05      11.3641     -143.374 
3.31601e-05      4.06866      73.4333 
-3.30379e-05      3.82131     -151.563 
-1.15878e-05      9.20423     -142.683 
-2.25185e-05      10.5783      45.3046 
-5.28341e-05      8.29592      11.1189 
1.15304e-05      14.3683      45.2264 
1.15220e-05      11.7911     -141.750 
0.000105904      9.18078     -89.3771 
-0.000112890      10.9387     -153.387 
-1.14514e-05      1.95486      48.3299 
-4.30518e-05      11.1033     -45.9501 
-2.23307e-05      9.81632     -125.212 
-2.26637e-05      13.8958      43.0153 
8.57899e-05      11.7957      147.604 
-2.15634e-05      12.8954      132.550 
0.000440218      14.3690      45.3385 
-0.000106149      3.90304      2.34696 
3.32659e-05      8.92688      153.952 
0.000472452      11.8228     -48.9786 
-3.27322e-05      8.68926     -159.523 
-4.40585e-05      9.97341     -85.2829 
2.19868e-05      12.6775     -133.208 
-6.15569e-05      11.8374      44.6584 
-1.12362e-05      7.87717     -112.074 
-4.31705e-05      14.1862     -44.1449 
-5.27103e-05      9.31620      47.7847 
1.11200e-05      6.62673      73.6972 
5.32575e-05      10.5092     -61.0924 
-2.15359e-05      12.1354     -40.9910 
9.18194e-05      3.80351      151.418 
2.15175e-05      7.38219     -171.430 
-0.000109808      11.1560      126.912 
-1.10661e-05      6.11023      64.6056 
6.32323e-05      10.3349     -130.996 
-0.000167029      5.91228     -8.95183 
3.18500e-05      10.1548     -45.6377 
-2.18961e-05      8.99446      73.8603 
1.10144e-05      5.48264     -5.22993 
2.10304e-05      13.7471     -134.410 
-6.21425e-05      8.61507     -104.523 
6.31901e-05      9.12021     -109.070 
-2.04125e-05      9.44646      30.2558 
4.20288e-05      12.7203      52.8590 
-0.000111305      10.2969      107.871 
-0.000422089      12.6650     -36.1991 
-0.000243228      11.0879      22.8167 
6.72504e-05      12.4922      53.3304 
-0.000204772      8.01449      109.385 
8.80219e-05      10.1363     -21.0460 
-2.12889e-05      8.94332     -9.52397 
-6.02015e-05      9.57891     -63.3286 
-7.03761e-05      8.67029     -159.476 
-2.06416e-05      9.52859      59.6143 
-4.05805e-05      9.18812     -142.606 
-5.09817e-05      10.2291     -136.665 
0.000128157      12.4481      139.888 
-1.06410e-05      3.39632      57.9919 
-3.14238e-05      9.99360     -85.2925 
-8.80645e-05      9.20927      74.6343 
-2.08487e-05      9.83226     -125.147 
1.05585e-05      7.02810     -177.228 
3.02651e-05      11.0938     -123.976 
6.97535e-05      7.56144     -124.655 
3.03641e-05      8.90868      153.895 
-6.86076e-05      13.2824      140.437 
4.01698e-05      7.94683     -65.3080 
-3.05690e-05      9.38121      80.0555 
1.04411e-05      7.08343     -175.303 
-0.000120143      13.2429     -43.2849 
-5.04632e-05      4.10133      144.524 
-0.000118644      10.2003     -100.165 
-2.04761e-05      10.3162      107.837 
1.03603e-05      2.92660     -24.6397 
4.91561e-05      10.5054     -20.5048 
3.03004e-05      10.1333     -19.3661 
0.000224437      9.40845     -159.987 
2.02924e-05      10.0716      48.2980 
5.73440e-05      11.4710     -134.083 
2.01300e-05      7.10531     -175.153 
-4.93019e-05      3.57116     -15.5898 
-2.01797e-05      8.96010     -9.37949 
-3.82252e-05      10.8904      65.1284 
-0.000115313      9.97176     -85.3989 
1.98744e-05      5.48897     -127.747 
-6.66132e-05      5.38004     -171.449 
1.01399e-05      4.33039      176.025 
-1.97241e-05      11.5540     -139.003 
7.64875e-05      12.1273      147.254 
9.27441e-05      7.37920     -171.586 
-1.01142e-05      11.3183      50.2343 
9.37903e-05      9.95873     -67.1948 
-5.85987e-05      9.43037      18.1653 
6.80206e-05      10.3580     -118.990 
1.00494e-05      9.70481      62.9079 
-1.00483e-05      9.75079     -112.936 
3.89428e-05      10.3751     -132.579 
2.96439e-05      9.82247     -77.7741 
1.00200e-05      4.71499     -94.6190 
1.00079e-05      11.5943     -51.2319 
4.82093e-05      11.7853      147.684 
7.19436e-05      12.4206      136.437 
0.000108368      12.4361      126.629 
-2.92783e-05      12.0498      44.3289 
-4.74394e-05      10.1405      142.450 
0.000316246      11.9914      148.641 
3.84981e-05      9.12685     -109.190 
-0.000222223      12.3670      49.3282 
-9.88874e-06      9.84351     -125.240 
-3.77373e-05      11.8232      44.5886 
-3.86905e-05      9.38037     -89.3904 
-5.74645e-05      3.90228      2.06074 
-9.82560e-06      10.9800     -58.4836 
-6.99703e-05      10.8425     -27.7018 
1.90550e-05      9.07864      153.998 
-3.85271e-05      9.49239      78.4538 
-9.76495e-06      8.61349      63.6716 
-0.000103568      12.9445      40.1113 
-9.78427e-06      9.36126      80.0341 
-9.76470e-06      8.86299     -157.021 
-3.77999e-05      9.51517     -16.9888 
2.84096e-05      10.5881      105.560 
6.62102e-05      10.5343     -40.9187 
-2.84553e-05      10.5902      73.9961 
2.86865e-05      9.17629     -127.297 
9.70225e-06      10.5269     -61.1457 
9.69856e-06      12.6628     -133.271 
9.71702e-06      8.59067      68.2729 
0.000156976      13.9461     -45.9287 
-8.58761e-05      11.5055      140.359 
1.89344e-05      13.7184     -134.408 
-0.000101158      9.35777      80.1562 
9.68922e-06      4.73518     -94.5993 
-0.000350473      13.2571     -43.2271 
-0.000119067      12.7026      48.0002 
-1.88709e-05      10.2909      107.768 
-7.56054e-05      10.8252     -27.7498 
-6.15647e-05      7.01544      114.959 
0.000129185      13.9625     -136.450 
1.86902e-05      10.0294      123.943 
1.91065e-05      12.5363      40.7304 
1.89489e-05      5.84017      103.463 
-9.59296e-06      13.5520      133.685 
-0.000127554      9.32982      47.6925 
-9.57198e-06      11.7416      29.4910 
-9.58612e-06      9.92594      1.96254 
1.88686e-05      1.53101     -70.1441 
1.89757e-05      11.3762     -144.661 
2.81492e-05      11.8024      147.737 
-9.55292e-06      3.96667     -150.724 
-1.89104e-05      13.5234      133.683 
9.53579e-06      10.3482     -131.081 
9.50252e-06      5.05670      65.4582 
-1.89266e-05      5.77890     -115.414 
4.65038e-05      13.9305     -135.522 
2.80073e-05      11.7814      128.660 
0.000174207      9.65166     -167.431 
8.28730e-05      4.73366     -94.3639 
9.46018e-06      10.5364     -61.0528 
-5.58176e-05      10.0939     -5.91403 
1.89290e-05      7.39642     -171.758 
-4.62078e-05      14.1998     -44.2014 
-0.000247109      10.0619      3.76291 
-9.43174e-06      9.19241     -142.779 
4.62354e-05      10.3403     -119.045 
1.88176e-05      3.81206      151.821 
-0.000146919      10.1967     -100.053 
-9.63103e-05      3.56194     -22.1018 
-0.000284137      12.9474      39.9875 
1.87539e-05      12.5247      54.6874 
0.000109982      13.4751      138.551 
-0.000100816      10.2716      107.802 
-6.43934e-05      10.5747      18.9827 
-9.14378e-05      9.38018     -89.5096 
-0.000127701      9.49646      78.3340 
5.50706e-05      11.3597     -144.602 
-0.000118442      10.5500      18.9169 
0.000154961      12.4100      52.0041 
8.20981e-05      10.5865     -157.214 
9.33553e-06      7.37637     -171.736 
2.77946e-05      13.4622      138.613 
4.58955e-05      12.5649      40.7401 
9.32200e-06      7.12549     -175.167 
-5.49078e-05      9.17629     -142.703 
3.91470e-05      9.72432     -106.982 
7.27400e-05      11.6800     -37.0672 
-6.51292e-05      9.06855      136.519 
0.000137604      12.1889     -143.675 
-3.66938e-05      5.75260     -115.315 
-7.28182e-05      8.20746     -75.8977 
-6.41995e-05      10.7978     -27.7048 
-0.000127679      13.7899      134.118 
4.59889e-05      10.6004     -132.783 
2.74180e-05      9.10843     -109.231 
9.29303e-06      11.7490      123.826 
-3.68327e-05      9.57060     -63.1677 
-0.000127527      12.1151     -124.372 
9.85833e-05      3.79421      151.676 
4.58718e-05      9.24616      128.059 
-2.74088e-05      11.3263     -38.0444 
1.84323e-05      10.6404      145.414 
-6.38480e-05      11.1832      113.951 
-7.26823e-05      11.8377      44.5197 
-1.82632e-05      10.6242     -126.502 
-1.83541e-05      8.68246     -159.643 
6.28702e-05      6.54267      132.025 
-3.64206e-05      9.20392      74.7559 
-3.65021e-05      8.94013     -36.9997 
2.72948e-05      9.06111      153.944 
-9.18071e-06      3.48396      2.62946 
-9.15349e-06      3.11298      47.0806 
0.000289944      12.2090     -143.863 
9.16676e-06      5.80201      56.5319 
1.82649e-05      11.7916      147.820 
9.17803e-06      9.18059     -89.4989 
-9.17540e-06      11.8519      44.5896 
-4.53611e-05      5.38309     -171.236 
-1.81452e-05      11.1444      37.3444 
-3.63474e-05      12.6573     -37.8115 
-1.81604e-05      10.9478     -153.293 
9.11220e-06      9.80752     -15.7377 
-1.81751e-05      10.4697     -43.2953 
1.81360e-05      7.02714     -177.393 
9.13648e-06      10.6237      145.352 
-1.81816e-05      9.92903      106.500 
-4.53847e-05      10.3941      162.995 
-1.81642e-05      10.1133     -5.90264 
-5.42992e-05      9.37104      22.4600 
4.52785e-05      9.26153      127.984 
-3.61984e-05      10.0658      95.4713 
4.36753e-05      8.41029      130.662 
9.07761e-06      2.91643     -25.1540 
2.71274e-05      10.6192      145.203 
7.03977e-05      5.82119      103.508 
-9.04137e-06      10.1268     -150.804 
-3.62319e-05      10.1420      1.13195 
3.62944e-05      10.9293     -155.686 
-0.000108643      11.0803      22.7237 
-3.61737e-05      9.95071     -85.5062 
-1.81273e-05      12.6602     -140.578 
4.51987e-05      7.46961     -25.5354 
4.52335e-05      10.6015     -132.628 
-8.15250e-05      13.3678      131.058 
-1.80991e-05      9.94544      1.95870 
-7.24129e-05      11.3458     -52.1622 
-8.43641e-05      11.0227     -113.869 
-3.60978e-05      10.3884      163.098 
-4.53157e-05      12.4707     -50.3344 
-5.84871e-05      9.53454     -16.9532 
-6.33796e-05      10.7799     -27.7548 
-0.000135801      11.0196      21.9572 
-3.61882e-05      9.21964     -102.527 
-9.03801e-06      12.0358      44.3938 
-3.61509e-05      10.3511      20.1151 
-9.03505e-06      9.45669      30.3618 
1.80694e-05      7.32858     -172.155 
6.33476e-05      10.9478     -155.729 
9.04537e-06      13.7048     -134.350 
1.81171e-05      10.0456      123.881 
1.81109e-05      13.9166     -135.465 
-9.02061e-06      11.3298     -52.0994 
3.61903e-05      9.16619      173.107 
1.80979e-05      10.4983     -20.4012 
4.52157e-05      9.45013     -97.9049 
-9.01679e-06      11.1272     -153.065 
1.80648e-05      9.55177      172.057 
5.42626e-05      14.3548      45.3960 
-1.80890e-05      8.00779      109.248 
5.43725e-05      13.4897      138.606 
-2.71825e-05      9.22347      74.7890 
-4.52919e-05      11.1360     -152.976 
6.26354e-05      7.45134     -25.6025 
3.12705e-05      8.13480     -133.505 
-9.04037e-06      9.26479      110.471 
2.71474e-05      10.9432      159.346 
-1.81212e-05      11.8049     -126.249 
9.01239e-06      9.98457     -67.1310 
-9.04746e-06      10.0456      95.4823 
-9.08326e-06      9.96569      1.95471 
-1.81042e-05      9.94920     -85.6182 
-1.96548e-05      11.5179      140.284 
1.81190e-05      12.4607      139.819 
2.71908e-05      13.9320     -45.9886 
3.62673e-05      10.6479     -164.085 
-1.80974e-05      11.5871      43.3914 
2.31130e-05      8.12087     -133.401 
-1.81641e-05      9.70676     -85.7440 
-2.72555e-05      12.6770     -36.2730 
1.81496e-05      9.27401      128.083 
-9.04498e-06      10.2469      107.728 
9.04886e-06      11.5053      56.9183 
-1.81185e-05      10.0813      3.75564 
9.08615e-06      12.0016      148.562 
9.06240e-06      12.5085      53.3858 
0.000139108      9.85933      86.3956 
9.10219e-06      11.3551     -144.465 
9.07640e-06      12.1016      32.3775 
9.07437e-06      1.24911     -148.086 
-9.06170e-06      12.9239     -129.728 
-9.07908e-06      12.3802      49.2571 
-7.95070e-05      11.5467      118.787 
-5.15165e-05      10.4680     -165.618 
0.000148393      12.4482      126.704 
2.98385e-05      9.85812      86.5088 
0.000117858      12.8970      39.0206 
1.88489e-05      9.83865      86.5019 
3.50750e-05      9.37755     -111.914 
1.89315e-05      7.90313     -88.4058 
9.56128e-06      6.52913      131.893 
2.71708e-05      13.2398     -41.0796 
-1.85980e-05      9.07858     -170.744 
-4.19247e-05      11.2253     -57.8111 
2.77256e-05      10.1142     -107.611 
9.61563e-05      10.0582      48.3842 
1.77823e-05      8.16573     -107.681 
-5.12456e-05      10.8604     -27.6522 
6.81013e-05      9.73003     -107.092 
-4.16778e-05      10.4630     -165.726 
-4.94079e-05      9.18290     -12.0702 
3.39973e-05      12.9375      130.486 
-9.09542e-06      11.3053      31.1040 
-4.11859e-05      9.94274      113.469 
9.75840e-05      12.4164      37.2737 
0.000108522      9.17337     -31.9935 
2.55959e-05      13.8317     -134.532 
1.72260e-05      3.80254      152.090 
-8.74997e-05      9.07534     -170.870 
2.52995e-05      8.20430      160.637 
-3.32013e-05      7.36803     -73.9240 
-1.72660e-05      11.1454     -27.3466 
-0.000108253      9.54025     -17.0653 
-2.34702e-05      3.92129      91.4584 
-1.72423e-05      11.5335      140.348 
8.78546e-06      7.90372     -88.2590 
-4.75985e-05      8.96938      73.9486 
-8.74267e-06      11.7812     -44.3807 
7.89282e-05      10.1204     -107.720 
-1.68976e-05      9.52088     -17.1011 
-5.67802e-05      3.94155      91.4509 
-1.66423e-05      11.5370      118.699 
-8.58156e-06      10.3244     -111.596 
0.000107810      12.7991     -139.692 
6.07633e-05      9.62700     -111.447 
-9.19586e-05      10.2438     -69.9018 
2.32906e-05      9.62814      174.279 
-2.49898e-05      12.5496     -139.200 
3.25630e-05      9.22948      118.899 
-8.37843e-06      5.36001     -171.417 
1.64497e-05      9.11512     -109.351 
3.19952e-05      10.4936      140.181 
5.48764e-05      5.50094     -127.908 
-3.04159e-05      9.17309     -14.5205 
-8.23229e-06      11.7667     -44.4497 
3.85761e-05      9.81137     -137.728 
8.22239e-06      13.2112     -41.0711 
9.76795e-05      13.6814     -136.718 
-2.41026e-05      11.6662      145.548 
-7.53998e-05      5.36307     -171.203 
-8.15052e-06      11.1616      149.528 
-3.87274e-05      5.08690      33.1298 
-8.17011e-06      2.53134      44.0392 
-3.81840e-05      8.29644     -100.417 
8.09927e-06      5.76322      56.7506 
4.54437e-05      8.69993     -96.7315 
6.07464e-05      12.1528      48.2037 
-7.50611e-05      9.99067      159.861 
3.87486e-05      12.6347     -133.270 
-3.17087e-05      9.39682      22.5287 
-8.03540e-06      9.37505     -154.473 
-1.58868e-05      12.5517     -139.330 
-3.83255e-05      7.00941     -67.1655 
-2.29285e-05      12.7813     -137.346 
3.01385e-05      3.06122     -75.2450 
-2.32241e-05      2.51735      44.3478 
-5.23645e-05      11.9115      34.8113 
2.25832e-05      4.35199      175.788 
-3.74447e-05      8.80394      50.1625 
5.13092e-05      10.3619     -132.499 
-7.87660e-06      11.4493     -123.746 
7.85933e-06      7.46011     -25.7428 
4.46783e-05      9.20044     -127.494 
-4.47705e-05      9.36052     -89.6325 
-3.74454e-05      10.5333     -66.5013 
-2.95714e-05      10.3245     -172.655 
-2.23164e-05      4.90163      161.931 
-4.44991e-05      9.25773      110.353 
-2.96945e-05      6.96125     -88.8450 
-6.65067e-05      11.6829      145.605 
-2.24632e-05      4.00559      10.3605 
-2.25389e-05      9.91278      56.4386 
-3.67724e-05      8.84745      123.473 
-0.000109813      9.37880      22.5744 
-7.73185e-06      5.56846      93.0899 
-7.73597e-06      12.2878      51.0779 
2.97684e-05      8.38229      130.644 
7.72647e-06      12.9937     -128.562 
-1.52199e-05      12.5567     -143.549 
-2.21674e-05      8.08434      70.4903 
-1.51858e-05      12.5363     -139.270 
-7.66304e-06      12.4577     -50.4061 
-1.50279e-05      10.3063     -111.636 
-2.22750e-05      8.13466      8.76545 
5.11424e-05      7.94854     -30.0481 
-2.98974e-05      10.2438     -136.742 
-4.45295e-05      12.2721      51.0185 
1.49717e-05      12.9249      130.420 
1.48634e-05      9.39635     -111.868 
3.68491e-05      11.2418     -118.707 
-1.45520e-05      8.07760      70.6258 
1.48606e-05      10.2066      68.8666 
6.54814e-05      9.23893      119.005 
-5.83223e-05      14.1726     -43.9703 
2.96250e-05      11.4414     -130.036 
-2.21254e-05      11.0307      132.135 
-1.46492e-05      6.84031     -110.182 
-3.62805e-05      9.58090      20.4022 
4.40933e-05      9.22366      88.3870 
3.64593e-05      13.9442     -135.464 
2.21589e-05      11.1827     -47.4638 
-4.33399e-05      5.56955      93.2903 
-7.48156e-06      12.7243     -50.2277 
2.88274e-05      13.5203     -135.481 
2.17797e-05      9.93220     -67.2573 
7.43977e-06      8.19169      160.461 
-1.45340e-05      6.89892     -113.222 
7.42515e-06      8.57410      168.428 
7.41707e-06      8.61602      68.2004 
1.45742e-05      8.87449     -47.2821 
-2.85909e-05      8.71276     -159.859 
4.33163e-05      12.3790      48.1426 
-3.60945e-05      12.1038      51.1050 
7.37477e-06      11.8816     -34.0905 
7.32995e-06      10.4656      140.192 
7.32289e-06      8.69766     -96.6039 
-3.58980e-05      8.67285     -172.578 
-1.44518e-05      12.5683     -143.478 
2.15089e-05      9.90598     -67.3160 
2.13109e-05      5.51341     -128.074 
1.43031e-05      7.59808      50.2328 
7.23653e-06      7.80030     -89.8512 
1.43090e-05      10.8841      58.2944 
-1.42535e-05      12.7664     -137.284 
-2.13537e-05      10.2447     -136.897 
-2.86257e-05      12.0103      131.895 
-1.42382e-05      8.12186     -153.686 
-2.12212e-05      8.64992     -52.0435 
1.42072e-05      11.8707     -34.0125 
-3.59523e-05      3.10103      47.8737 
1.42497e-05      9.29124     -66.8038 
-7.14641e-06      12.6951     -40.5917 
-7.15523e-06      11.8159      56.7398 
1.41441e-05      8.88402      84.3140 
7.12940e-06      12.8813     -141.492 
1.42227e-05      11.4288     -129.961 
1.41119e-05      12.6066     -133.263 
7.12979e-06      11.1690     -47.5404 
7.10071e-06      9.16265     -31.8860 
7.10278e-06      11.9894      122.603 
7.09022e-06      12.4046      37.2019 
7.08228e-06      11.2791     -118.838 
7.06207e-06      10.3798      109.239 
-7.05320e-06      11.9282      34.7558 
-7.03886e-06      6.17651     -127.502 
7.02987e-06      14.2420     -45.5123 
7.04001e-06      13.3421      131.843 
-7.02371e-06      12.3006      51.0045 
-2.27344e-05      10.4827     -165.753 
3.62941e-05      11.4451      124.605 
1.44522e-05      9.24763      15.3004 
7.33638e-06      10.4812      140.263 
7.30014e-06      10.1484     -118.485 
1.43165e-05      10.0537     -35.9359 
1.42133e-05      12.3980      52.0751 
-7.22801e-06      8.22580      144.299 
-2.11129e-05      5.09759      33.3135 
1.41791e-05      12.1038      141.105 
1.41239e-05      11.9615      122.573 
1.40371e-05      7.95645      114.506 
-1.40541e-05      9.85521     -125.336 
7.08686e-06      11.5682     -119.179 
7.06605e-06      10.1433     -21.1489 
-7.06361e-06      12.7269     -50.3562 
-7.05485e-06      5.79825      69.1914 
7.08380e-06      10.5190     -40.9910 
-7.03685e-06      9.93499      113.366 
-7.03560e-06      11.1304      121.404 
1.39531e-05      8.83917      159.885 
6.99453e-06      9.03267     -73.9304 
6.99449e-06      11.8707      49.3040 
-6.95582e-06      7.80854     -116.961 
! Tentative model.
! Flux (Jy) Radius (mas)  Theta (deg)  Major FWHM (mas)  Axial ratio   Phi (deg) T \
! Freq (Hz)     SpecIndex
-7.27796e-06      10.4825     -165.752 
