! Center RA: 12 21 31.69052,  Dec: +28 13 58.50011 (2000.0)
! Established model.
! Flux (Jy) Radius (mas)  Theta (deg)  Major FWHM (mas)  Axial ratio   Phi (deg) T \
! Freq (Hz)     SpecIndex
 0.0832084    0.0202604     -90.0000 
0.00967168      0.00000      0.00000 
 0.0127155     0.262662      81.2912 
0.00309750    0.0446338      116.996 
0.00817499    0.0633577      108.650 
 0.0235060     0.260423      85.5380 
 0.0329507    0.0397705     -90.0000 
0.000495647    0.0828082      104.162 
 0.0172899    0.0802914      90.0000 
 0.0196620    0.0998015      90.0000 
0.00836000     0.259634      90.0000 
0.00154919     0.240977      85.1771 
 0.0138015     0.240124      90.0000 
 0.0134244     0.101837      78.5245 
0.00430458     0.219863      90.0000 
0.00298007     0.362375      96.3009 
0.000708723    0.0828082      75.8378 
0.000810532    0.0633577      71.3505 
0.000331529    0.0202604      90.0000 
0.00310757     0.381773      95.9795 
0.000164710     0.200353      90.0000 
0.00130602     0.400469      92.8999 
0.00106407    0.0202604      0.00000 
0.00150674     0.140322      90.0000 
0.000790991     0.420705      92.7603 
0.000956702     0.120062      90.0000 
0.000317932     0.459987      90.0000 
0.00238013    0.0286526     -45.0000 
0.000914203     0.480248      90.0000 
0.000940146     0.499758      90.0000 
0.000646216     0.121759      80.4216 
0.00485276    0.0446338     -63.0042 
0.00180743     0.520018      90.0000 
0.00171968     0.667840      98.5944 
0.00141858     0.690371      100.015 
0.00442892     0.401929      95.6787 
0.000532282     0.240977      94.8229 
0.000446029     0.520413      92.2312 
0.000210207     0.540658      92.1476 
0.000156761     0.320306      93.6266 
0.00115478     0.279894      90.0000 
0.00149202     0.541740      94.2100 
0.000400224     0.562998      96.1209 
0.000139024     0.583147      95.9087 
0.000273264     0.624998      97.3810 
0.000509989     0.201375      95.7743 
0.00267882     0.521537      94.3734 
0.00188790     0.687137      98.3513 
0.000107133     0.220795      95.2649 
0.00316310     0.543603      96.3402 
0.00284458     0.707189      98.1129 
9.91847e-05     0.181229      96.4188 
0.00308573    0.0633577     -71.3505 
0.00126306     0.380236      93.0544 
0.000984627     0.161111      97.2243 
0.00241068    0.0720098     -56.4755 
0.00128782     0.727252      97.8876 
6.01927e-05     0.260423      94.4620 
0.000226704     0.280627      94.1402 
0.000252905     0.824622      104.062 
0.000752946     0.704700      96.5423 
5.36491e-05     0.300838      93.8616 
0.000358090     0.829578      105.369 
0.000595147     0.684575      96.7355 
0.000102570     0.262662      98.7088 
9.89727e-05     0.282706      98.0871 
0.000625591    0.0896014      63.6495 
9.62581e-05     0.278155      68.9736 
0.000184808     0.184432      102.453 
0.00107334     0.854601      106.319 
9.15976e-05     0.286260      102.105 
4.62146e-05     0.585580      97.8809 
4.56060e-05     0.268467      63.4349 
0.000210258     0.278118      59.6991 
0.000169594     0.588572      99.7625 
0.000907105     0.849131      105.006 
4.34344e-05     0.306099      101.310 
0.000294745     0.164706      103.973 
0.000121844     0.291183      106.006 
4.14510e-05     0.608549      99.4391 
7.94860e-05     0.541740      85.7900 
0.00120784    0.0828082     -75.8378 
4.00287e-05     0.310708      104.976 
0.000223126     0.612198      101.310 
0.00118719    0.0720098      56.4755 
0.000252949     0.288454      56.3513 
0.000109732     0.189835      108.435 
7.49430e-05     0.543603      83.6598 
7.45654e-05     0.297155      109.625 
7.06879e-05     0.461703      94.9415 
0.000428291     0.441522      95.1680 
0.000235169     0.316312      108.392 
0.000138414     0.546212      81.5471 
6.96562e-05     0.422095      95.4065 
0.000404745     0.616492      103.157 
0.000427980     0.170734      110.586 
0.000295250     0.300155      53.1301 
6.37519e-05     0.549419      79.5342 
0.000459387    0.0720098      33.5245 
3.18623e-05     0.568616      79.8913 
0.000481277     0.873342      105.959 
0.000148007     0.323277      111.801 
0.000229025     0.572519      77.8948 
0.000159338     0.341468      110.586 
0.000157833     0.621223      104.909 
5.19468e-05     0.463888      97.4354 
0.000143355     0.178866      116.673 
7.74603e-05     0.577108      75.9276 
5.09065e-05     0.312731      50.1592 
0.000644504     0.740145      108.931 
0.000344569     0.394056      113.929 
0.000310023     0.304558      66.7829 
0.000105762     0.759338      108.435 
0.000225478     0.375627      115.183 
6.82273e-05     0.101837      101.476 
3.39218e-05     0.765732      109.820 
6.60053e-05    0.0286526      45.0000 
3.32689e-05     0.810060      105.749 
8.06673e-05     0.121759      99.5784 
0.000392719     0.145849      105.824 
0.000184975     0.721011      109.453 
0.000223899     0.844290      103.727 
0.000179210     0.313099      63.3735 
6.09616e-05     0.349107      113.700 
0.000114759     0.702644      109.983 
5.59804e-05     0.331336      115.056 
0.000114134     0.863255      103.420 
8.34927e-05     0.483985      97.1250 
2.79567e-05     0.402700      116.565 
5.45326e-05     0.746703      110.347 
0.000211971     0.887605      104.342 
2.75939e-05     0.304887      58.3833 
5.31566e-05     0.304558      113.217 
0.000103628     0.772836      111.233 
5.31141e-05     0.322315      60.2717 
2.64328e-05     0.420241      115.375 
0.000216336     0.676788      108.957 
0.000179478     0.481892      94.7340 
0.000120925     0.315980      55.2532 
0.000141564     0.429314      117.819 
0.000259834     0.907248      104.025 
4.91593e-05     0.286050      114.817 
0.000164635     0.632861      71.5436 
0.000115632     0.798447      112.081 
6.57007e-05     0.651397      107.913 
8.61639e-05     0.313099      116.626 
2.23561e-05     0.460433      92.5220 
0.000120679     0.327950      52.3435 
4.25665e-05     0.447333      116.608 
0.000332979     0.931206      104.943 
0.000183007     0.639305      69.8847 
2.16179e-05     0.197181      114.029 
0.000142516     0.824622      112.808 
4.01274e-05     0.700111      90.0000 
0.000111441     0.456404      118.798 
0.000110427     0.205897      118.994 
3.76589e-05     0.340058      118.035 
0.000102788    0.0562440      45.0000 
0.000171214     0.832685      114.094 
0.000101550     0.700404      88.3424 
3.57362e-05     0.646553      68.1986 
5.14015e-05     0.480675      92.4157 
6.94899e-05     0.627787      67.5118 
0.000159360     0.340220      49.7414 
0.000305848    0.0802914     -90.0000 
3.42134e-05     0.322315      119.728 
8.40552e-05     0.950796      104.628 
3.31227e-05     0.474259      117.619 
7.67842e-05     0.683639      110.563 
6.38838e-05     0.216445      123.690 
0.000249934     0.635505      65.8864 
9.34693e-05     0.955909      105.760 
5.98050e-05     0.350038      120.964 
0.000101987     0.483985      119.745 
1.55965e-05     0.460433      87.4780 
1.54239e-05     0.841160      115.353 
5.89357e-05     0.858831      114.796 
5.69518e-05     0.701240      86.7487 
8.34235e-05     0.244605      125.006 
0.000212877     0.975424      105.437 
0.000104982     0.867194      115.966 
0.000143124     0.353651      47.2356 
7.37947e-05     0.690733      112.079 
0.000108524     0.501018      118.638 
0.000104519     0.360880      123.723 
2.48927e-05     0.412220      75.9891 
0.000366476    0.0998015     -90.0000 
6.05348e-05     0.702680      85.0992 
4.75849e-05     0.480675      87.5843 
3.59353e-05     0.256296      128.581 
0.000110321     0.876255      117.158 
7.73919e-05     0.999726      106.258 
0.000231031     0.644048      64.2410 
0.000544454      1.37346      106.049 
0.000110189      2.02490      113.268 
1.11112e-05     0.240790      131.589 
5.09278e-05     0.704700      83.4577 
0.000137510      1.23688      112.847 
5.07528e-05     0.269397      131.952 
0.000134004     0.698601      113.619 
1.05727e-05     0.493955      121.710 
1.04323e-05     0.481892      85.2660 
0.000138941     0.510656      120.559 
0.000845364      2.04284      113.052 
0.000294492     0.353651      42.7644 
3.75406e-05     0.500168      87.6785 
0.000154468     0.994244      105.138 
6.14334e-05     0.372066      126.223 
8.60903e-05     0.885686      118.324 
9.28823e-06     0.867991      104.673 
3.53338e-05     0.269397      138.048 
3.53862e-05     0.707189      81.8871 
0.000169613      1.24458      113.675 
4.08660e-05      1.24172      104.918 
3.96894e-05     0.501338      85.4500 
0.000259206     0.120062     -90.0000 
3.90349e-05     0.727252      82.1124 
0.000126584      1.50512      109.392 
8.09586e-06     0.283342      135.000 
2.94075e-05     0.284207      140.679 
0.000154821     0.355922      128.150 
9.46871e-05      1.23684      104.045 
7.87219e-05     0.895107      119.423 
4.08191e-05     0.730308      80.5377 
0.000100019     0.706962      115.123 
0.000174915     0.521249      122.478 
3.89158e-05     0.503350      83.1504 
3.59133e-05     0.300155      143.130 
4.11157e-05     0.733911      78.9773 
6.64979e-05     0.617068      65.1178 
0.000278354      1.52425      109.140 
1.65906e-05     0.506166      80.8728 
5.69585e-06     0.653108      62.6400 
6.40816e-05     0.933005      120.980 
2.58080e-05     0.737890      77.4902 
4.45753e-05      1.25286      114.523 
9.79403e-05      1.01381      104.839 
7.95055e-05      1.21792      104.267 
3.62049e-05     0.315980      145.253 
3.60069e-05     0.526180      81.2228 
0.000285070     0.121759     -80.4216 
1.86253e-05     0.680086      114.303 
1.42862e-05     0.742542      75.9638 
6.00745e-05     0.753177      73.0274 
8.58657e-05      1.24380      115.746 
5.76972e-05     0.625863      63.4349 
5.84989e-05     0.688672      115.839 
7.11831e-05     0.943196      121.996 
3.32665e-05     0.368782      40.6266 
3.60508e-05     0.529508      79.1359 
1.76251e-05     0.332828      147.241 
6.20428e-05     0.724743      62.0287 
1.07418e-05     0.753070      79.2611 
5.58958e-05     0.368782      130.627 
0.000113485     0.532403      124.317 
3.22514e-05     0.756949      77.8100 
0.000108260     0.355922      38.1504 
7.15626e-05      1.21309      103.340 
5.37829e-05     0.715464      116.538 
7.18697e-05     0.340058      151.965 
4.46517e-05     0.563425      73.5200 
4.87459e-05      1.00899      103.768 
2.70124e-06     0.569504      71.5651 
5.14527e-05     0.954085      123.028 
1.89696e-05     0.788842      81.2456 
3.75440e-05     0.353651      132.764 
1.68537e-05      1.26140      115.361 
4.29106e-05     0.792179      79.7971 
9.57050e-06     0.558204      75.4407 
1.19105e-05     0.635182      61.8001 
1.83886e-05      1.20858      102.405 
1.37518e-05      1.25240      116.550 
7.26047e-06     0.553458      77.4712 
1.55400e-06     0.367178      135.000 
4.22985e-06     0.771858      73.4501 
8.66062e-06     0.982133      123.374 
-7.17887e-05     0.181229      173.581 
6.69022e-06      1.23546      119.072 
2.24174e-05     0.126477     -71.6725 
5.23797e-06      1.02868      103.499 
2.59717e-06     0.965278      124.036 
2.56138e-06     0.644631      60.2717 
5.08343e-06     0.331336      154.944 
1.27456e-06      2.01699      112.740 
-0.000386060      10.7204     -45.6040 
-0.000259562      8.45254     -84.9783 
-0.000232792      11.3263     -40.1278 
-0.000205614      12.0908     -137.681 
0.000123791      9.72988      123.005 
-0.000264374      8.95939     -106.735 
0.000192017      5.47197      36.8275 
0.000216560      11.2250      116.339 
-0.000143580      9.29676     -123.861 
-2.59181e-05      8.76223      137.499 
0.000204448      11.5882     -139.409 
-2.57187e-05      13.9899      133.783 
-0.000119953      8.97652     -149.319 
9.59939e-05      8.11769      174.489 
-0.000183392      6.87193     -101.246 
9.56093e-05      9.74688      122.940 
0.000225995      8.85853     -50.9582 
-9.37039e-05      8.74731      137.409 
-9.34432e-05      4.62932      29.2242 
-0.000200266      11.3931      118.635 
-0.000134518      10.4439      36.8246 
-0.000157667      10.1521     -27.0707 
-4.84987e-05      13.9752      133.840 
0.000157159      10.4030      24.0506 
-0.000152241      5.93343      107.456 
-0.000111806      9.01290     -17.8315 
0.000113262      6.69198     -164.221 
-0.000174196      9.17691     -112.150 
0.000105291      8.11584      174.626 
6.91054e-05      6.10651     -81.5274 
-6.69941e-05      4.61065      108.199 
-0.000129110      7.50612     -2.29175 
0.000129149      9.12960      166.574 
8.69514e-05      5.36307     -171.203 
-0.000170013      9.82043     -120.743 
-8.55207e-05      4.33331      160.307 
0.000128120      10.7562     -34.1612 
0.000128751      4.18619     -67.2316 
8.65548e-05      10.3225     -39.8893 
-0.000127345      13.9612      133.780 
6.51635e-05      7.96816     -125.088 
-0.000105593      2.90491      172.489 
-0.000147105      12.1058     -137.746 
0.000126450      6.75123     -146.971 
-0.000126197      11.3239     -40.2723 
-0.000105732      10.9984     -50.6064 
8.36165e-05      3.73320     -150.828 
4.36972e-05      2.22488      54.8734 
6.35535e-05      1.89151     -109.779 
8.28145e-05      8.33620     -18.1740 
-0.000103561      9.20782     -44.0326 
-0.000124105      8.29197      142.741 
0.000102185      9.66781     -111.099 
-8.21558e-05      12.9317      128.216 
-2.16465e-05      10.8911      59.6666 
-6.12481e-05      10.2898      124.308 
8.14635e-05      6.80850     -2.86177 
4.16438e-05      9.23614     -80.1482 
8.10723e-05      12.9040      46.7578 
-8.06532e-05      10.9086      59.7203 
0.000187662      11.2993      146.112 
-2.09460e-05      10.2811      98.0514 
4.09237e-05      12.2254     -51.4418 
-4.10139e-05      4.14302     -162.002 
4.07483e-05      3.50800      12.8412 
6.07568e-05      10.0276     -135.725 
-6.01809e-05      11.6870      50.2071 
4.05032e-05      14.1136     -134.886 
-4.03356e-05      9.75406     -65.2744 
-4.03732e-05      10.1993     -147.899 
6.00638e-05      7.28142     -54.3903 
-5.95342e-05      8.87758      9.33493 
-4.03398e-05      3.26328      161.790 
4.01887e-05      11.2337      116.428 
2.04360e-05      2.10767      170.719 
4.00213e-05      2.22997      55.5987 
4.77726e-05      9.58205     -106.239 
2.03338e-05      9.68766     -126.775 
-6.63927e-05      8.29876     -145.507 
2.02101e-05      8.95533     -122.413 
-2.02191e-05      4.83853      46.6778 
-3.95160e-05      10.2590      97.9547 
-3.95445e-05      9.30806     -123.964 
3.95028e-05      9.29061      161.293 
3.92573e-05      9.20006     -137.291 
3.92240e-05      9.54388      47.8872 
1.99023e-05      8.08316     -178.441 
3.90388e-05      10.4215      24.0052 
1.98483e-05      4.76605      12.1149 
0.000122025      12.3742      41.1349 
-1.97544e-05      8.38115     -81.0791 
1.97159e-05      9.58877      119.076 
1.96910e-05      9.05833      123.200 
1.96182e-05      10.1400     -16.1469 
1.95935e-05      1.49876     -71.3111 
1.95818e-05      9.68420     -126.940 
-1.94882e-05      9.29825     -160.786 
1.94730e-05      10.3444     -106.859 
1.93612e-05      9.57661     -106.127 
1.92705e-05      8.64300      164.294 
0.000134394      12.3895      41.0733 
0.000268035      9.20174      104.219 
-0.000161813      10.2561      124.031 
-0.000214504      9.20894     -43.6827 
0.000256946      11.0029      115.632 
8.27040e-05      8.32143     -42.8586 
0.000141103      6.59157      156.391 
4.23309e-05      9.80632      70.0869 
0.000128936      12.5699     -48.6764 
-0.000163609      13.0881      129.358 
0.000234019      6.92991     -135.465 
-0.000113590      8.48615      2.15879 
5.95826e-05      9.76332     -10.5041 
2.03609e-05      10.8767      114.210 
0.000199407      10.1962     -13.8470 
7.34419e-05      9.04381      57.6444 
3.90009e-05      9.79944      70.1983 
5.55017e-05      3.91467      108.161 
-1.97183e-05      10.2905      96.6959 
0.000106138      11.3330      146.226 
9.59400e-05      9.53451     -102.726 
3.74014e-05      10.8499      114.156 
3.21587e-05      9.16937      149.744 
8.66419e-05      8.12548      2.11698 
8.86518e-05      10.7770      143.831 
-3.61666e-05      12.2264      54.3863 
-3.72533e-05      11.9274      125.583 
0.000163853      14.3826     -44.8309 
0.000142708      6.71018     -167.083 
0.000250789      13.4447     -41.5632 
0.000162846      11.0345     -112.149 
-9.97124e-05      6.26298     -19.5943 
3.63970e-05      4.59481      110.646 
6.48184e-05      8.33472     -42.9569 
6.60196e-05      7.27637     -142.597 
7.91353e-05      6.51441      108.433 
0.000112380      9.18623      149.805 
-5.12015e-05      10.2703      96.7091 
0.000159694      9.81850      70.2384 
0.000128377      8.38316     -106.923 
3.52939e-05      7.58483     -177.885 
0.000200344      9.78324     -10.4825 
-7.72449e-05      6.59192     -19.8644 
-0.000178641      10.4017      130.242 
-0.000109701      9.75704      21.1476 
0.000105874      8.94475      62.8631 
-3.41142e-05      9.19076      87.2577 
1.76161e-05      8.34956     -42.8622 
-0.000133982      11.9156      125.504 
-4.82301e-05      10.1102      132.112 
0.000105441      10.2266      151.882 
-0.000136716      10.5438     -156.646 
3.32859e-05      8.25777      25.3868 
-0.000185157      9.29676     -146.139 
1.69824e-05      10.6813      110.268 
-3.26387e-05      9.50293      1.44793 
-3.17687e-05      2.97164      5.01236 
4.63119e-05      9.08139     -54.1376 
9.86868e-05      9.71008      147.619 
0.000111482      4.60199      110.882 
0.000104795      6.17501      110.078 
9.00399e-05      3.70431     -151.639 
0.000122453      11.1386     -123.205 
1.67574e-05      10.5054     -20.5048 
8.45809e-05      10.2047      30.6364 
-3.25979e-05      5.20100      35.7654 
-9.14648e-05      11.3283      134.498 
1.65463e-05      10.8417      114.058 
-0.000203099      8.48543      2.02714 
0.000129692      7.60507     -177.891 
7.04488e-05      9.47244      63.0046 
-0.000175771      10.3030     -173.648 
-0.000126781      8.14620      140.877 
-4.67003e-05      6.20976      32.1037 
-5.95683e-05      10.4447     -149.507 
-5.92117e-05      10.3518     -100.462 
1.61618e-05      8.98082     -108.841 
1.61145e-05      10.2286      30.4253 
-8.85949e-05      10.9638     -130.634 
1.59748e-05      8.89900     -161.117 
-4.40223e-05      9.63854     -139.968 
7.39216e-05      9.62141     -101.148 
8.51167e-05      10.5125     -20.6082 
1.57343e-05      10.7606      143.767 
8.47219e-05      9.72175     -75.2204 
5.69452e-05      3.93000      4.08406 
-0.000136665      10.7490      130.774 
-7.36373e-05      12.3886      135.133 
1.56212e-05      8.73172      13.2397 
-2.97093e-05      9.57329     -40.6802 
3.89019e-05      3.90840      107.878 
4.04852e-05      2.61704      80.3270 
1.53978e-05      3.95926     -71.7539 
-2.89938e-05      5.72724      138.963 
2.85936e-05      7.65780     -21.6075 
-2.88580e-05      12.4897      54.1202 
-0.000157114      9.23707     -43.6834 
2.84423e-05      10.2810      74.7750 
4.30623e-05      8.24787      25.5696 
0.000120257      10.7722      143.683 
0.000159663      11.3161      146.169 
-0.000175408      9.26400     -88.2687 
-1.48953e-05      10.2290      124.001 
0.000104557      8.87984     -161.075 
4.14884e-05      8.74700      13.0849 
2.82271e-05      10.8684      114.112 
2.89114e-05      8.74181      46.2973 
1.47116e-05      9.05466      57.5361 
1.46339e-05      10.7885      143.747 
5.96159e-05      7.23346     -6.98937 
2.85938e-05      8.50121      151.625 
-6.33223e-05      5.21684      35.6402 
-0.000145561      9.79699     -162.044 
0.000160337      9.84045      146.017 
7.54410e-05      3.95319     -72.0225 
-2.80434e-05      7.33639      142.756 
-5.20602e-05      9.35203     -136.645 
4.10728e-05      12.2757      123.638 
-2.74787e-05      9.52270      1.32298 
1.43625e-05      10.6743      110.166 
-8.70843e-05      6.23280      31.7517 
-9.36920e-05      10.1471      92.1445 
-7.79937e-05      7.52251      94.4224 
-4.03037e-05      8.80913     -54.1463 
2.82097e-05      9.71314      153.330 
-1.42567e-05      10.9838      42.6384 
1.41747e-05      5.87523     -83.7455 
0.000116440      9.22312     -121.068 
-7.48810e-05      11.1832      120.051 
-6.27254e-05      9.94794     -112.958 
1.39896e-05      6.35051     -135.895 
6.79126e-05      6.70568     -167.251 
-6.13109e-05      12.1259      50.8241 
2.32418e-05      5.96413     -161.629 
-0.000116199      9.91374      102.467 
0.000131015      12.5985     -48.6680 
-2.72279e-05      4.37131     -107.029 
-0.000123530      12.4024      135.196 
7.17000e-05      11.0732     -44.9259 
-2.63140e-05      6.95232     -107.234 
3.77284e-05      8.75529      46.0209 
2.56261e-05      6.38901     -165.311 
-6.94012e-05      9.71273     -65.8092 
3.68634e-05      6.96421     -126.474 
-0.000107317      5.20059      101.308 
1.32973e-05      12.1261      43.1946 
0.000108809      8.73934      68.6608 
-1.32804e-05      11.6164     -38.4298 
-2.56624e-05      10.0456      95.4823 
-9.86859e-05      10.6678      58.3347 
-7.09241e-05      2.19547     -66.9403 
3.54467e-05      3.55586      110.068 
3.71425e-05      8.48405      151.563 
-2.39127e-05      2.97348      5.40126 
-7.70300e-05      7.36437      87.9796 
-0.000102800      13.3316     -42.8126 
4.25872e-05      10.1944     -39.9087 
-9.61220e-05      11.3286      134.359 
-4.61435e-05      6.59453     -65.0650 
3.71012e-05      9.73125      153.384 
6.81508e-05      10.8282      145.843 
6.71839e-05      8.78059      56.2380 
3.61461e-05      8.98098     -90.8952 
1.29319e-05      7.01732     -11.3412 
8.97931e-05      6.61014      156.461 
1.29029e-05     0.286050     -114.817 
5.59253e-05      9.62520     -101.262 
0.000249600      11.6001     -57.1035 
-4.62687e-05      10.3555     -100.572 
-2.45586e-05      8.33160     -30.7505 
3.68731e-05      13.9450      45.5799 
-0.000140590      4.35266     -107.104 
-1.27413e-05      4.11647      59.3210 
1.27263e-05      9.20276      56.7907 
-1.26892e-05      10.9845      42.4917 
-1.26658e-05      8.97315      137.349 
5.45859e-05      7.94206     -49.2913 
-0.000158658      12.3604      135.130 
1.26195e-05      10.7614     -34.0169 
-6.84913e-05      10.3759      167.758 
2.34018e-05      12.3979      132.778 
-1.25914e-05      9.58866     -40.6013 
-8.89305e-05      4.27092      134.623 
7.06652e-05      13.8916     -136.399 
-1.25583e-05      7.28916      92.8324 
5.70400e-05      12.6523      36.5790 
-4.51103e-05      11.2007      119.999 
-3.50732e-05      7.52410      94.5762 
2.30247e-05      8.80074      155.996 
-1.24649e-05      10.2507     -159.795 
-1.24785e-05      7.33258      142.534 
6.44770e-05      3.71398     -151.364 
-8.37534e-05      11.6444     -38.4430 
-7.64528e-05      9.61555     -116.033 
-2.35729e-05      10.4615     -149.561 
-6.58034e-05      10.8096     -110.581 
0.000135134      12.4265      132.783 
2.29042e-05      8.69909     -86.1767 
-4.51589e-05      9.65406     -140.045 
1.22755e-05      10.5902      29.9040 
1.22027e-05      4.77853      165.207 
6.27731e-05      11.7436      150.291 
1.21837e-05      7.77712      29.9293 
2.31567e-05      8.26615      25.5090 
-1.21394e-05      11.3876     -59.3827 
0.000217588      8.36255     -174.237 
1.20720e-05      7.24243     -125.444 
3.44735e-05      12.5130      143.973 
1.20592e-05      8.10598      2.26008 
2.35563e-05      3.00563     -16.6253 
-0.000188355      10.2531      94.5881 
-8.79259e-05      7.31651      142.438 
1.19781e-05      12.8960     -39.7142 
4.35637e-05      3.50052     -32.8725 
3.31539e-05      3.92769      107.788 
-1.19279e-05      3.56260     -159.637 
-2.29165e-05      12.8528      51.5068 
-0.000142261      9.77594      21.1048 
-4.30059e-05      5.96430      127.367 
-5.13922e-05      2.91162     -50.2909 
2.26236e-05      11.0205      115.588 
-3.08374e-05      6.64423     -36.8000 
-3.21933e-05      9.93215      133.368 
-6.90161e-05      8.15852      140.771 
4.25943e-05      8.74810      52.7104 
1.17393e-05      12.1403      43.1316 
-1.17410e-05      9.00277     -173.236 
6.23435e-05      11.4484      153.435 
-5.34314e-05      9.68636     -51.8774 
-9.21062e-05      12.0647     -143.834 
0.000157176      9.59187     -57.1702 
0.000150183      9.83030      70.3838 
2.19802e-05      6.96106      64.8327 
-4.26591e-05      10.3042     -101.420 
0.000102863      9.34035      115.359 
0.000413400      12.9140      37.8294 
6.34226e-05      12.2870      123.716 
2.15352e-05      6.18199      110.254 
-3.30048e-05      10.7426     -151.048 
1.14986e-05      8.75898     -86.2029 
3.26996e-05      7.75957      30.0040 
2.18272e-05      8.12623      2.25445 
3.30349e-05      10.1895      71.1020 
0.000102064      9.30276      20.3835 
1.13971e-05      8.95401      62.7478 
3.95358e-05      10.4871     -20.5421 
5.88812e-05      9.50437      127.303 
6.08679e-05      8.58271      164.732 
6.06350e-05      12.4614     -45.9759 
1.13219e-05      7.12353     -122.617 
-2.15079e-05      6.93902     -107.443 
1.12881e-05      9.71660     -75.3359 
-2.15969e-05      12.2044      134.933 
3.23848e-05      8.65902     -19.1478 
1.11709e-05      6.91602     -135.352 
7.74107e-05      13.9305      45.5216 
-5.09635e-05      11.7639      36.6360 
5.12099e-05      9.74937      153.437 
-2.17337e-05      8.54766     -73.1336 
-0.000188069      12.2790      40.0445 
-0.000168090      6.91817      13.0323 
5.19787e-05      7.62403     -48.6151 
-3.07378e-05      11.6875     -131.601 
1.09814e-05      9.34890      107.426 
0.000128258      12.4113     -124.895 
6.92474e-05      9.17841      78.6891 
2.09802e-05      7.63221     -21.5200 
-3.47290e-05      11.4154     -59.3469 
1.09184e-05      10.5805      29.8124 
3.00673e-05      9.85240     -76.5004 
-2.00891e-05      8.79771     -54.2493 
-2.08856e-05      5.65355      128.246 
8.16794e-05      11.8568      140.887 
1.08014e-05      7.79560      104.716 
9.39039e-05      13.4582     -41.6277 
0.000159997      9.41507      106.664 
1.06884e-05      10.1872      30.6945 
-2.04707e-05      9.52227      1.20562 
2.75528e-05      7.71734      109.376 
-0.000133095      8.63849      22.1692 
-3.96593e-05      9.02289     -173.251 
2.96089e-05      8.98130      62.6921 
0.000471931      13.8775     -136.343 
-3.87054e-05      9.33731     -136.560 
1.06006e-05      9.64774     -98.5839 
-1.98747e-05      7.54355      94.5644 
-1.05700e-05      10.0750      133.071 
-2.77548e-05      10.0281      95.6082 
2.02141e-05      10.7802      149.200 
1.05030e-05      12.1122      43.1247 
4.58946e-05      8.22663     -42.1422 
2.02635e-05      3.01149     -16.9946 
-6.47204e-05      8.61705      131.233 
7.64087e-05      11.9365      44.4575 
-9.71325e-05      9.70477     -7.58001 
9.98038e-05      10.5324     -107.232 
-8.98924e-05      10.3877      41.3304 
1.03208e-05      3.45996      109.590 
1.98342e-05      9.67930      15.2138 
2.93508e-05      8.39597     -106.752 
0.000550229      13.2549     -39.5514 
2.01513e-05      6.64841     -164.290 
7.55839e-05      10.7239     -55.3325 
-0.000105347      8.54180     -73.2636 
1.93657e-05      10.5629      29.8671 
4.19720e-05      8.77789     -86.3436 
-8.10873e-05      9.98772      173.330 
1.97203e-05      9.12160      111.616 
-4.53916e-05      10.7603     -151.101 
2.77610e-05      9.19679      104.096 
1.89712e-05      7.15152     -122.666 
-0.000173793      9.92255      178.730 
-3.76052e-05      11.8576     -148.587 
4.72887e-05      10.1766      70.9612 
1.00395e-05      9.33678     -58.4905 
-5.18469e-05      7.83722      95.5659 
-5.13644e-05      10.2660      129.864 
5.17630e-05      12.3475      146.027 
6.76162e-05      10.0695     -72.4292 
8.16017e-05      11.7382     -45.2745 
9.93408e-06      2.82321      30.1907 
5.44603e-05      10.2691     -133.893 
8.70085e-05      7.74223      109.464 
1.92744e-05      6.06416     -166.650 
-3.39017e-05      7.81009     -75.4657 
0.000122413      10.6933      110.129 
9.82510e-06      9.21713     -13.5554 
9.83303e-06      8.57740      164.862 
4.49089e-05      8.04124     -109.920 
-0.000166651      9.81005     -162.193 
1.91252e-05      7.74268      30.0762 
9.00122e-05      11.1555     -123.148 
-2.34990e-05      11.7436      119.709 
9.70731e-06      10.4264      141.150 
-2.44623e-05      10.4513     -149.657 
-4.11300e-05      10.4434      130.340 
4.42146e-05      8.63325     -19.0649 
1.84121e-05      11.6321     -120.138 
-3.57878e-05      11.7125      50.0577 
-9.33600e-05      13.3173     -42.8696 
9.60653e-06      6.96938      64.6876 
-1.85284e-05      12.8566      51.6311 
7.58641e-05      10.0563      115.190 
9.55034e-06      9.53883     -102.840 
-1.87207e-05      6.41067      60.8757 
-2.44601e-05      10.3999      167.677 
-4.38369e-05      9.06565     -37.8317 
3.34349e-05      12.2645      33.5588 
-9.47916e-06      10.7127      41.3679 
3.34390e-05      12.6680      36.5264 
-9.43201e-06      8.15477     -145.490 
5.93628e-05      11.2979     -48.9480 
3.60101e-05      12.1676      130.734 
-6.10959e-05      9.75019      98.6134 
-2.58066e-05      1.38053      91.6508 
-9.43015e-06      12.1620      134.868 
9.72648e-05      7.61065     -48.7296 
2.27460e-05      8.31493     -76.9345 
-4.99476e-05      9.52186      1.08374 
-0.000174768      9.62412     -116.138 
0.000145184      13.5055      45.0608 
0.000136749      10.1724     -13.7625 
9.29671e-06      5.46886      28.6293 
4.30653e-05      10.6702      153.386 
9.25769e-06      7.83875      39.8231 
-0.000130501      10.3009     -173.756 
-3.48361e-05      11.7336      119.623 
4.83374e-05      6.66247     -164.505 
-0.000161559      13.8889      44.1835 
2.64353e-05      8.79428      121.234 
-4.27204e-05      4.28518      134.816 
4.18428e-05      8.31954     -76.7985 
-0.000115593      8.25494     -145.462 
4.39830e-05      9.39638      106.698 
1.76654e-05      11.6896      35.8113 
-9.11479e-06      8.53049      131.387 
-3.47298e-05      10.1883     -114.100 
1.77816e-05      10.8557      145.812 
9.06931e-06      7.78668      113.141 
4.16161e-05      9.76682      153.488 
0.000105482      7.55001      8.83881 
-2.58918e-05      10.3401     -100.702 
-0.000186394      10.9933      23.2541 
9.14889e-05      12.4398      132.849 
9.02578e-06      8.38886     -107.051 
-2.48704e-05      9.69888     -51.7833 
-2.58647e-05      9.04226     -173.266 
-4.71653e-05      11.1334     -37.7774 
5.17531e-05      9.21307     -120.965 
-3.29596e-05      6.19985     -126.867 
-8.93985e-06      1.48194      176.894 
-8.93327e-06      8.34837     -30.6820 
6.99247e-05      9.19743     -13.5850 
-8.87047e-06      5.64149      128.091 
8.85806e-06      8.96180     -91.0219 
3.33583e-05      7.72515      30.1515 
-2.42177e-05      12.1131      50.8984 
-3.89118e-05      12.5855      127.836 
2.48996e-05      9.05191      159.163 
1.72375e-05      9.99165      15.6771 
-2.57866e-05      7.45677     -124.840 
-1.56837e-05      6.27340     -24.6890 
5.69660e-05      9.89583     -66.2845 
-3.30003e-05      8.65726      22.1187 
-5.55106e-05      10.6993      41.2865 
1.73366e-05      12.2839     -47.1116 
8.73684e-06      9.78454      118.977 
-1.68993e-05      8.88412      9.58803 
-2.48326e-05      8.51530      131.478 
-6.34525e-05      9.19542     -117.456 
5.68451e-05      13.7193     -45.7091 
-8.72005e-06      10.9329     -113.845 
-1.72305e-05      12.3855      126.001 
6.18181e-05      9.85726      146.083 
9.91826e-05      10.1703      71.0651 
-6.59255e-05      9.89396      102.492 
-8.64893e-06      13.0405      138.857 
-1.68343e-05      10.0225      84.7333 
-1.62580e-05      9.27994     -146.070 
-8.43412e-05      11.6250      45.1386 
1.65501e-05      5.98265     -161.688 
7.08009e-05      9.27672      20.3098 
-2.39993e-05      7.25496     -44.8869 
-8.59646e-06      10.0883      133.152 
-8.56500e-06      11.7923      36.6562 
-1.68292e-05      7.79103      163.752 
7.32771e-05      11.9220      44.5257 
8.55795e-06      7.65036     -21.4664 
0.000128262      10.5115      123.752 
1.64932e-05      9.69298      147.555 
-3.00401e-05      1.50217      176.936 
-5.54833e-05      10.9411     -113.942 
-8.51017e-06      12.8440      51.7020 
-4.00648e-05      9.24450     -88.2650 
-0.000113637      10.8215     -110.443 
-8.50370e-06      5.96056      127.640 
2.54546e-05      13.8489     -136.346 
-8.46552e-06      10.3154     -101.178 
8.74703e-05      9.21674      105.997 
8.47258e-06      9.11522     -16.0478 
5.42781e-05      9.53100      118.446 
0.000178568      12.1808      130.806 
8.42295e-06      7.82500      58.0581 
-0.000345124      12.3970      126.074 
-3.11692e-05      11.6323     -38.3677 
1.53753e-05      10.7634      149.147 
4.01544e-05      12.2701     -47.1809 
3.22011e-05      11.0419     -112.242 
-2.41895e-05      12.6191     -136.542 
6.43256e-05      9.82798     -76.5876 
8.33110e-06      6.04445     -166.606 
-2.42698e-05      11.6334      55.4376 
7.77268e-05      7.94237      88.5545 
8.29658e-06      9.18226      78.5698 
-0.000261145      10.0419      84.7436 
-2.33129e-05      7.54197      94.4109 
7.45596e-05      11.7160      150.328 
-1.50662e-05      6.40289      60.6291 
-4.65205e-05      11.0163      52.6727 
-1.48592e-05      7.87603     -101.424 
8.25679e-06      11.3165      127.315 
-3.15697e-05      10.4827      162.911 
5.46769e-05      7.97827     -173.091 
4.71403e-05      13.9163      45.5811 
3.08042e-05      12.4328     -45.9781 
3.03693e-05      8.20498      35.9738 
0.000278934      13.3337     -50.1713 
-3.62500e-05      8.13870     -145.412 
5.89710e-05      9.77474      118.873 
2.30743e-05      8.39483     -107.183 
-3.71815e-05      8.98806      137.436 
5.91815e-05      9.46512      13.0678 
2.38015e-05      12.2399      43.0797 
-1.59395e-05      11.8471     -148.671 
-5.24724e-05      7.44522     -124.712 
8.10622e-06      7.92886     -49.4022 
2.32563e-05      8.99785      168.591 
-4.48016e-05      5.44137     -118.544 
4.85728e-05      8.79186      56.1282 
-5.22381e-05      8.09810      167.303 
2.33007e-05      10.0112      15.6457 
1.49328e-05      8.67524     -58.2883 
0.000156506      11.7243     -45.2074 
-2.27617e-05      9.24631      23.1839 
-5.17313e-05      6.63240      15.2108 
-4.36340e-05      12.6598      126.778 
4.99255e-05      11.3320      127.255 
5.72429e-05      6.98958     -46.8532 
-4.97043e-05      10.5252     -156.602 
5.67521e-05      11.0196     -21.9572 
-4.47153e-05      10.8406     -158.119 
-1.51063e-05      7.87204     -101.280 
2.22534e-05      8.78379      121.121 
-2.24663e-05      11.2730     -34.5924 
7.85127e-06      10.8238      114.100 
7.84476e-06      9.41183      107.818 
-7.84605e-06      11.6745     -131.529 
-2.14258e-05      9.96760      173.316 
-6.97752e-05      7.02306      7.69376 
-7.07671e-05      11.7830     -35.6051 
-7.81071e-06      13.0552      138.913 
7.81347e-06      8.90558     -160.994 
8.22836e-05      11.2696      47.7338 
-2.97782e-05      10.3890      69.0201 
7.77221e-06      10.8444      145.901 
-4.26428e-05      12.9963      40.3821 
2.23695e-05      9.09778     -115.665 
-1.44015e-05      10.9199     -40.6918 
0.000100701      12.7719     -135.824 
-2.13498e-05      10.0135     -49.3731 
0.000169076      12.2982     -47.1734 
-1.49646e-05      9.06003     -173.408 
7.28606e-05      10.0756     -72.3194 
-5.08842e-05      9.96526      173.432 
-2.82577e-05      5.53855      65.0112 
-7.70280e-06      10.3437     -100.809 
7.68121e-06      12.4116      132.846 
-0.000275350      10.7831     -161.734 
-7.67600e-06      10.2811      37.6494 
-1.48785e-05      10.2062     -114.055 
-5.69611e-05      13.3389      133.847 
5.00416e-05      11.1952     -120.964 
0.000115953      8.76815     -143.624 
-5.60222e-05      11.3489     -50.3627 
-3.43684e-05      8.92012      9.42191 
2.75364e-05      11.0036     -41.9788 
7.09502e-05      12.0807     -144.705 
-7.62869e-06      6.05679      130.584 
-1.41662e-05      9.49923      96.4087 
1.42702e-05      9.16240      78.5447 
-7.13602e-05      12.6044     -136.479 
1.42912e-05      7.85374      39.7320 
7.57534e-06      8.61481     -19.1073 
7.57321e-06      13.0286     -133.693 
5.93831e-05      10.6974      153.338 
2.89378e-05      10.0182     -26.0545 
1.49757e-05      3.69687     -151.219 
4.26852e-05      10.1923     -129.186 
4.22909e-05      7.70764      30.2271 
7.53446e-06      9.86218      76.7515 
-8.18694e-05      8.28269     -145.430 
1.47876e-05      11.5720     -57.1333 
-5.00838e-05      13.9198      133.602 
-7.49645e-06      5.84520      92.3544 
-7.49414e-06      9.04966     -37.9104 
-3.58829e-05      9.94320     -168.398 
1.43147e-05      8.19852     -42.1361 
1.48716e-05      11.0496     -112.340 
0.000153648      11.0120     -21.8594 
-4.72716e-05      8.49911     -124.547 
3.54026e-05      2.82042      29.2930 
-3.49058e-05      11.1494     -37.7137 
-7.45575e-06      9.76437      21.2585 
-8.11364e-05      11.6494      55.4920 
-7.45769e-06      10.7698     -151.010 
-7.44722e-06      7.34488      87.9742 
-3.54354e-05      11.9564      127.388 
7.43343e-06      5.33573     -47.2797 
0.000123249      11.2960     -48.8030 
2.04705e-05      12.5249      143.898 
-1.43735e-05      8.52873      131.580 
2.16470e-05      9.34872      115.467 
7.40951e-06      7.28100      119.453 
-7.40592e-06      7.74739      163.808 
0.000111047      11.1358      153.666 
-3.43296e-05      10.0807      26.0043 
-5.30277e-05      10.4864     -55.0977 
0.000233375      13.9024      45.5248 
-2.12163e-05      8.43057      75.4368 
0.000119634      9.60246     -57.0724 
-8.84342e-05      10.4962      163.050 
-8.06938e-05      10.2615      78.0779 
-7.35123e-06      9.26494      23.1346 
1.44216e-05      4.74515      164.856 
0.000189124      11.2230     -59.0001 
5.91395e-05      9.64507     -101.238 
2.09381e-05      9.79400      153.435 
1.42314e-05      9.05914      159.043 
-9.60057e-05      10.8230      38.9241 
-2.15842e-05      10.0243      84.6180 
-7.30676e-05      13.3024     -42.9290 
7.28492e-06      12.2828      43.0220 
1.39639e-05      9.86133     -66.4488 
-4.58418e-05      4.90476     -37.7097 
7.26311e-06      7.79605      3.67541 
5.17224e-05      13.7048     -45.6500 
5.33645e-05      8.79109      120.944 
-6.80771e-05      8.38638     -100.721 
-7.23085e-06      5.02128      97.3236 
9.69570e-05      12.5851     -48.7373 
-1.34802e-05      10.4765      39.1892 
-1.39853e-05      9.52150     0.961839 
-4.14941e-05      10.2646      8.17868 
-0.000168418      12.7962     -47.4074 
0.000103219      10.4943     -20.6457 
2.05185e-05      9.71168     -75.4473 
5.28328e-05      9.02944      177.333 
-3.14098e-05      13.3582      136.942 
-7.13115e-06      9.32315     -136.477 
-2.63987e-05      9.24391     -88.3905 
2.73938e-05      10.9618     -57.0616 
2.02585e-05      9.67200      172.990 
7.12333e-06      11.5614     -55.4311 
-5.26380e-05      12.8024     -138.041 
5.25367e-05      12.2977      42.9576 
-0.000294885      10.2987     -173.868 
6.90638e-05      7.81857      57.8536 
2.02389e-05      8.92474     -161.036 
-0.000122847      11.8167      58.3548 
3.50863e-05      9.88190      76.7784 
-3.99505e-05      8.84412     -88.3177 
-7.04049e-06      6.06950      130.723 
-4.43684e-05      11.0286      52.5890 
7.03092e-06      6.97104     -75.2068 
-3.93879e-05      10.0979      68.2618 
-3.13479e-05      8.56705     -73.1729 
7.01160e-06      7.27106      119.314 
5.57796e-05      8.97799      168.565 
-2.70306e-05      11.8366     -148.755 
3.32442e-05      13.4788      135.661 
-0.000156292      9.13389      3.13649 
1.37777e-05      11.0573     -112.437 
7.75002e-05      9.54067      118.553 
-2.03918e-05      10.8225     -158.081 
5.07347e-05      11.5503     -55.5108 
-6.23914e-05      10.4189      167.699 
-0.000181069      9.94206      178.733 
-0.000136992      13.4911     -45.0000 
3.27213e-05      8.42751     -170.022 
0.000151078      10.0750     -46.9286 
-6.91450e-06      5.04325      97.5237 
1.33203e-05      9.90604      151.678 
3.14258e-05      8.36062     -174.370 
6.89196e-06      4.72559      164.792 
1.35301e-05      8.64329      178.408 
-2.59917e-05      8.49368      71.6099 
-1.88202e-05      4.29895      135.000 
-2.63492e-05      11.7193      141.721 
8.49525e-05      13.4184     -41.4361 
-0.000124931      11.0189      23.3072 
-0.000148252      12.4922      43.3790 
4.39046e-05      10.0001     -19.2698 
-6.81946e-06      10.7869     -151.060 
-2.00243e-05      10.3576      136.879 
-1.93477e-05      8.44680     -80.8707 
-6.79366e-06      9.84756     -59.2137 
6.77945e-06      9.38635      107.738 
-2.56487e-05      11.4322     -59.3968 
-0.000328834      13.9063      133.544 
-6.04089e-05      11.8062      30.4310 
-2.51936e-05      8.44073    -0.545027 
-9.08809e-05      10.7962     -158.140 
-6.75837e-06      10.7735      129.276 
8.39138e-05      13.4050     -41.3712 
6.72759e-06      8.98151     -156.232 
4.77454e-05      9.11390      114.088 
1.93610e-05      6.20200     -120.204 
-6.70462e-06      9.11967      96.5484 
-6.70927e-06      10.3070      129.962 
-7.08928e-05      12.6347     -140.009 
6.69939e-06      8.92126      104.940 
-6.13250e-05      8.84207      102.274 
-3.10770e-05      7.79048     -75.4283 
-6.69473e-06      10.1801     -113.996 
-4.37142e-05      11.9280      127.369 
-9.00377e-05      13.9271      137.328 
-3.16063e-05      9.83720     -59.3151 
0.000126265      11.2831      146.056 
6.65551e-06      9.49199     -128.584 
-6.63637e-06      9.92335     -168.374 
3.75929e-05      9.83687      70.2768 
-1.28483e-05      12.1763      134.935 
-4.84074e-05      10.4148      130.327 
1.96072e-05      4.67311      164.359 
6.63153e-06      8.34046     -174.357 
-2.54958e-05      9.01669      137.428 
6.61613e-06      8.95929      31.4921 
8.29127e-05      13.5208      135.720 
-6.60440e-06      10.7638      49.2943 
2.53349e-05      9.44539      13.0956 
-1.27510e-05      8.63042      131.334 
1.29722e-05      9.87408      146.148 
7.27414e-05      10.6864      110.027 
1.30212e-05      11.6044     -127.224 
4.94296e-05      12.0972     -144.760 
1.27988e-05      13.0267     -39.5799 
-6.56996e-06      10.4794      39.0334 
-1.88024e-05      11.9827     -145.543 
-6.66990e-05      13.3811      133.909 
2.55059e-05      2.81056      28.9328 
1.87128e-05      6.62803      156.529 
-8.47097e-05      11.8236      30.3813 
5.38882e-05      11.1847     -120.875 
-6.53650e-06      11.6146      60.6096 
-1.29994e-05      10.2446      8.19480 
1.18840e-05      10.0166     -126.228 
-6.52547e-06      9.92840      24.1397 
7.59750e-05      10.0066     -19.3752 
6.45709e-05      13.1466     -132.967 
4.84073e-05      10.2051     -129.274 
-4.37348e-05      11.6364      126.615 
-1.26030e-05      10.6781      58.2456 
5.60316e-05      11.3056      26.2470 
1.25357e-05      12.3250      36.0892 
-6.48735e-06      10.5403     -158.399 
-7.68463e-05      9.92745     -168.259 
-1.29092e-05      11.0279     -145.793 
1.86699e-05      8.22078      35.8939 
6.58804e-05      9.70815     -127.128 
-4.19576e-05      10.3719      136.953 
6.96109e-05      7.69079      30.3003 
6.46484e-06      8.64275      178.542 
-6.42929e-06      11.6107      45.0681 
-6.42874e-06      13.1451      133.089 
2.44977e-05      9.33122      171.994 
7.99675e-05      10.9724     -56.9761 
-3.10475e-05      11.8098     -148.787 
4.25817e-05      10.8997     -47.5278 
-6.41126e-06      8.45018      75.4714 
1.24024e-05      10.0299      15.6157 
-5.86610e-05      10.2474      8.30277 
-6.37631e-06      9.08057     -78.5656 
1.24573e-05      8.17046     -42.1225 
6.37207e-06      11.0648     -112.530 
-2.99970e-05      13.9034      44.0094 
-1.25392e-05      7.02833     -53.9119 
-1.82430e-05      10.2976      82.9723 
-6.94700e-05      11.9615     -52.2681 
-1.80754e-05      10.1516     -171.503 
6.34894e-06      9.94926     -57.8119 
4.10953e-05      9.73554     -69.1819 
-4.11179e-05      11.1210     -37.6949 
-4.23725e-05      11.0111     -145.734 
3.65781e-05      8.77372      121.012 
9.14812e-05      9.93083      29.3019 
0.000164426      11.7100     -45.2778 
4.02202e-05      8.97657      31.4246 
9.75208e-05      10.0033      176.103 
-2.46622e-05      11.7989     -35.5500 
-1.23769e-05      12.9395     -50.3293 
-4.09463e-05      8.44531      75.5995 
6.29513e-06      9.06944      123.307 
-6.28760e-06      7.96785      167.534 
2.39483e-05      9.53031      47.9776 
-5.28204e-05      11.3364     -50.4387 
-5.85134e-05      13.9034      44.1253 
-1.24434e-05      11.7040      141.662 
1.83829e-05      6.00492      81.5712 
-6.26391e-06      1.38011      90.8412 
4.10969e-05      11.6199     -127.166 
-4.07832e-05      13.4245     -43.6117 
-1.84624e-05      12.2462      139.702 
3.95198e-05      8.66301      178.546 
-1.22679e-05      10.6081     -133.931 
-1.80621e-05      13.1308      133.147 
6.21277e-06      8.00772      107.438 
-8.46574e-05      11.6046      60.6967 
1.23637e-05      9.22224      103.164 
6.21538e-06      10.4524     -136.006 
-4.14958e-05      8.84357     -88.4441 
-1.22591e-05      13.4867      130.729 
-6.20012e-06      6.17031      132.896 
8.93184e-05      11.6732     -28.8915 
-1.22308e-05      13.2571     -136.773 
-1.21652e-05      10.4922      39.1193 
-2.96622e-05      7.92465      167.615 
-1.78881e-05      10.5591     -158.440 
2.37751e-05      3.10486     -158.060 
-3.57865e-05      14.0430     -44.9437 
-4.01289e-05      9.63130      135.758 
1.77074e-05      13.0547     -39.5939 
1.20837e-05      9.00902      177.456 
-1.16347e-05      12.0974      50.8379 
6.14873e-06      10.6917      121.459 
2.41586e-05      13.8329      137.753 
6.13614e-06      7.62532     -48.8263 
-8.91619e-05      10.2575      78.1845 
-6.14498e-06      10.2540     -86.9797 
6.14374e-06      4.65913      164.052 
1.21947e-05      10.1689      6.66562 
-7.74286e-05      10.0692      171.549 
-1.76353e-05      6.34889     -170.386 
2.46698e-05      9.19229     -30.7480 
-6.12686e-06      11.9972      122.125 
2.91919e-05      9.08017      123.410 
-6.89756e-05      12.0135      138.373 
-4.03249e-05      12.6139      127.852 
-6.09678e-06      10.3438      136.961 
-0.000144220      11.6243      126.535 
1.19580e-05      10.4881     -104.803 
-5.75468e-05      12.8159     -137.974 
6.09485e-06      13.0685     -138.846 
-8.27604e-05      10.2489     -174.399 
-3.51140e-05      1.00437     -167.355 
-6.07202e-06      10.0625      26.0549 
4.06362e-05      9.21764      103.042 
-6.81006e-05      13.4827     -46.6237 
2.31980e-05      12.5369      143.823 
0.000100243      12.4445     -34.7882 
1.19754e-05      7.56929      8.81612 
-2.87859e-05      1.00028     -168.446 
2.89959e-05      12.3119      42.8957 
2.91015e-05      9.46056      12.9483 
-4.55789e-05      9.03106      137.512 
2.91601e-05      12.9474      129.988 
-1.13117e-05      7.89589     -101.395 
-1.75821e-05      7.01685     -54.0406 
-0.000109925      11.7319      141.644 
6.00638e-06      9.80376     -76.6711 
-7.29865e-05      10.2547      94.6968 
5.07480e-05      11.3777      34.4719 
-4.08023e-05      11.0484     -66.8689 
7.18649e-05      11.7040     -128.338 
-3.40282e-05      12.9832      40.3139 
-1.19378e-05      13.2876     -42.9885 
5.16026e-05      12.0804      133.659 
1.72217e-05      11.5982      58.0374 
2.35927e-05      12.5039      143.259 
1.72575e-05      9.17488     -30.8127 
-4.60046e-05      10.1739     -171.406 
9.34568e-05      2.79350      29.1264 
-2.25685e-05      10.5315     -69.4306 
-2.31224e-05      9.96791     -177.700 
3.43555e-05      10.1511      6.78827 
-0.000104678      11.7819     -148.820 
-6.27550e-05      12.2267     -55.5297 
3.94344e-05      9.77957     -10.3658 
6.08715e-05      12.2326      124.678 
-5.95052e-06      6.19839      132.910 
1.16332e-05      10.4670     -136.083 
2.32642e-05      9.24784     -36.6467 
-4.57765e-05      11.7871     -35.4698 
2.31732e-05      13.0813     -138.782 
7.25818e-05      8.77249     -143.809 
-4.47919e-05      13.5503     -134.044 
8.73016e-05      13.2824      140.437 
5.93056e-06      10.7634      122.481 
2.91314e-05      11.2970      26.1583 
5.91350e-06      9.60151     -106.206 
5.90872e-06      13.0275     -133.817 
-9.54743e-05      12.4879     -44.4157 
5.91240e-06      10.3176      33.5352 
-2.30808e-05      13.2719     -136.833 
3.42091e-05      11.0617     -112.764 
5.90355e-06      4.64038      163.986 
5.90208e-06      9.16399      169.817 
5.89786e-06      11.9105     -128.045 
-0.000148581      11.8064      58.4354 
2.25670e-05      8.16046      44.5045 
0.000181578      13.6067      138.812 
-1.69891e-05      10.2530     -87.0928 
3.93029e-05      10.6745      121.516 
-0.000131810      10.3542      9.22476 
3.43494e-05      13.8193      137.815 
-1.16658e-05      7.04314      7.67169 
-5.87106e-06      4.14094     -171.948 
5.86408e-06      6.21827      85.5705 
2.82153e-05      10.1913     -13.7365 
-1.74338e-05      11.0226     -145.647 
1.72524e-05      11.0186     -41.9083 
-3.97651e-05      12.3723     -52.6846 
2.23881e-05      10.7367      127.660 
-3.42349e-05      13.2733     -43.0459 
5.85422e-06      9.96502     -1.83829 
-9.36720e-05      13.6333      135.000 
-5.84573e-06      8.94011      9.40065 
-1.15134e-05      7.64790      119.450 
6.10366e-05      11.8334      52.2799 
-8.18879e-05      11.3255     -25.5226 
1.15093e-05      11.8443     -136.984 
-3.35657e-05      7.89992     -101.539 
-0.000239597      11.1273      23.2940 
-1.13396e-05      9.34238      7.62505 
3.93338e-05      11.8913     -128.237 
-4.94149e-05      10.4698     -55.0342 
-5.82060e-06      11.9509     -134.389 
6.59640e-05      10.3793      120.962 
1.71326e-05      12.0018      48.5815 
-1.13677e-05      10.3481     -72.3337 
5.51716e-05      8.92783      85.5023 
-5.79584e-06      13.9445      134.651 
1.12786e-05      13.1760     -49.3697 
-1.71156e-05      13.4801      47.8857 
1.69966e-05      9.23738      103.013 
-5.77021e-06      6.62191      18.4924 
-1.67727e-05      11.7993     -148.871 
-2.22837e-05      9.72105     -65.7003 
-5.75612e-06      11.9305     -41.4659 
6.65719e-05      12.5201      143.314 
5.74782e-06      6.62029      156.684 
1.69616e-05      9.67946     -20.9444 
0.000135257      12.1249     -144.735 
4.42765e-05      10.9146     -47.5997 
-5.95596e-05      12.3497      136.379 
0.000189223      14.2430      44.1462 
-5.73458e-06      13.9444      134.769 
-1.66696e-05      11.6951     -40.1435 
1.12182e-05      9.18394      169.840 
7.59070e-05      11.3887     -148.208 
-5.70368e-06      9.10707      92.2666 
-4.45608e-05      14.2429     -135.967 
-1.12507e-05      6.86806     -101.930 
-6.00418e-05      14.0573     -44.8854 
-3.32679e-05      9.94588      173.419 
4.30505e-05      12.2978     -146.208 
1.12491e-05      12.6842      36.4720 
9.78676e-05      11.2788      26.2036 
6.00810e-05      11.9089     -44.0478 
1.67773e-05      13.3366      135.424 
-4.36860e-05      13.6203      134.225 
-4.39046e-05      8.04828      126.615 
-5.66968e-06      11.6653      138.823 
-7.57557e-05      12.5903     -136.418 
5.99599e-05      9.26410     -36.5719 
1.67014e-05      3.12366     -158.199 
-0.000113312      11.0058     -145.587 
-5.65642e-06      11.4762     -37.2116 
1.64267e-05      11.0964      121.511 
5.65284e-06      11.3715     -148.154 
-3.32083e-05      11.3171     -25.4335 
-5.92751e-05      12.4742     -44.3517 
1.68219e-05      8.40042      89.3193 
1.12208e-05      5.02901     -168.065 
2.74141e-05      10.5012     -20.7453 
1.11879e-05      10.1547      15.1864 
-0.000124331      11.0664     -66.9085 
-5.44524e-05      6.26954      19.7622 
5.94951e-05      12.6905      51.2698 
1.10954e-05      9.66043     -101.102 
-6.47777e-05      8.84640      102.402 
-3.81518e-05      13.9301      134.710 
-4.32806e-05      11.1135     -155.094 
2.74828e-05      12.9494      129.863 
4.89130e-05      4.94488      113.352 
2.19374e-05      10.9047      62.3540 
-2.75498e-05      11.6500      138.758 
7.55877e-05      12.4224     -124.969 
3.79074e-05      9.35054      172.010 
-6.54603e-05      10.7701     -158.196 
-1.65291e-05      10.3742      130.230 
-5.58475e-06      10.2928      173.192 
-2.20352e-05      13.4665      47.9497 
-5.57993e-06      6.60270      18.5482 
1.63881e-05      8.54712     -173.958 
-5.59600e-06      12.0484     -143.777 
-6.97096e-05     0.855930     -142.588 
-2.71704e-05      13.3434      136.882 
5.91455e-05      12.1354     -140.618 
-1.64357e-05      11.4880     -37.2891 
-1.08397e-05      11.0447      52.6528 
-1.64064e-05      12.6481      126.707 
6.51061e-05      13.8342     -136.288 
5.55251e-06      8.78069      120.830 
-1.65498e-05      9.91550     -46.0609 
5.54561e-06      8.44746     -170.046 
-5.56114e-06      10.2966     -173.980 
0.000139267      11.2663      145.999 
-1.10088e-05      13.4385     -43.6742 
2.77114e-05      8.11502     -113.533 
5.53563e-06      11.6634     -28.8043 
-1.10440e-05      13.2585     -43.1057 
2.17543e-05      11.1300     -44.7815 
-2.75041e-05      13.1283      46.4822 
-1.64007e-05      8.94353     -119.032 
5.52951e-06      9.49542     -133.037 
-3.78196e-05      9.98737     -177.821 
-3.25993e-05     0.984607     -167.097 
4.88585e-05      9.54380     -18.7013 
-5.51862e-06      8.81642      97.5611 
1.64067e-05      10.2208     -129.202 
5.51758e-06      12.0001      48.4450 
-9.10811e-05      10.3098      173.317 
-2.69225e-05      12.5363      49.2696 
-2.71866e-05      13.2858     -136.769 
-5.90942e-05      13.9179      43.9515 
2.15671e-05      13.0703     -39.5373 
2.16802e-05      12.0669      133.592 
-8.03610e-05      10.1940     -171.423 
-1.08937e-05      8.86362     -88.3214 
6.98010e-05      10.0257     -19.3368 
-6.42806e-05      12.7945     -47.2817 
-9.60403e-05      13.4244     -43.7317 
4.31812e-05      12.5413      143.952 
2.71180e-05      8.42048      89.4537 
-9.11158e-05      10.2772     -173.969 
9.62577e-05      11.2403     -59.0533 
-2.71320e-05      12.3841     -52.6128 
-8.54677e-05      13.9408      137.266 
-8.02952e-05      11.9989      138.311 
1.63097e-05      11.7628      132.588 
-9.62687e-05      13.5055     -45.0608 
-8.55087e-05      9.42197      82.4397 
1.08816e-05      10.1742      15.1565 
-4.29392e-05      8.38263     -100.585 
5.47608e-06      12.7005      36.4176 
-3.25365e-05      12.2153     -55.6080 
-2.69347e-05      11.6629      138.686 
-2.17463e-05      13.2447     -43.0417 
-1.62108e-05      11.3236     -50.5177 
1.08954e-05      12.0135      48.3727 
-2.15092e-05      10.3581      137.034 
2.68350e-05      9.71661     -69.1394 
5.87907e-05      13.2940      135.366 
2.16206e-05      7.43285      79.1416 
2.69946e-05      10.0257      17.5331 
5.45171e-06      4.01119     -99.1821 
-1.60718e-05      10.4387      167.723 
5.45326e-06      10.3630      15.2176 
3.24599e-05      12.0316      132.576 
-1.08740e-05      11.7758     -35.3925 
-1.08502e-05      12.7946      139.436 
6.41389e-05      10.0918     -84.2004 
-6.41722e-05      9.92905     -45.9798 
1.61474e-05      11.8768     -126.232 
5.45005e-06      9.43448      106.629 
2.15928e-05      2.50803     -156.495 
-1.07853e-05      11.9441      127.310 
-4.27948e-05      12.8853      134.059 
1.62359e-05      9.48160     -132.947 
-6.39508e-05      13.2709      48.1171 
-3.78792e-05      13.1137      46.4213 
4.26970e-05      9.22667      169.759 
4.80090e-05      9.21309      102.919 
3.75413e-05      13.4202     -41.3140 
-1.62285e-05      13.4087     -134.032 
-4.79743e-05      10.1445     -147.970 
-3.20763e-05      10.5103      38.8968 
2.14704e-05      9.71197     -126.966 
-2.14246e-05      5.94314      22.7673 
-3.19291e-05      8.81910      97.6916 
-4.81025e-05      10.4903      163.156 
-4.80111e-05      9.63376     -115.980 
5.43672e-06      10.2246     -115.612 
-1.07671e-05      9.23981      62.8231 
1.07864e-05      9.66421     -101.216 
0.000111793      13.3207     -50.2382 
-1.60319e-05      8.41775     -73.7185 
5.42385e-06      9.78727      19.9535 
-5.43221e-06      13.3312      39.9468 
-1.07568e-05      11.0196     -51.6333 
-2.66198e-05      6.36553     -170.597 
4.26143e-05      9.80227      118.920 
-5.42215e-06      6.58420      18.6022 
-6.38142e-05      13.8049     -43.9451 
-5.41123e-06      10.3801     -12.3473 
1.07824e-05      10.2158     -13.8198 
0.000132731      13.8629     -136.285 
-1.61065e-05      13.2438     -43.1656 
5.39953e-06      7.29582     -101.065 
1.60769e-05      13.2959      131.096 
1.59902e-05      3.99523     -99.5136 
3.72530e-05      10.2336     -129.290 
1.07252e-05      12.1940      130.878 
-3.72111e-05      10.7857      68.5724 
-1.07516e-05      10.8938      151.127 
1.59900e-05      11.7409      133.620 
-5.31220e-05      10.3759     -12.2421 
-5.39119e-06      10.5175     -156.700 
-7.95472e-05      13.5525      41.0510 
-5.37499e-06      9.82934     -162.229 
-2.65380e-05      13.0625      50.0920 
-2.12862e-05      6.77162      14.3658 
2.14388e-05      8.54410      91.7413 
5.19977e-05      9.71489     -145.231 
-1.60023e-05      8.83578     -58.3252 
-5.37597e-06      10.4197      165.776 
-1.07098e-05      12.6015      127.780 
-3.18060e-05      13.4206      134.939 
-0.000106084      13.0997      46.4855 
1.59816e-05      8.75245     -143.549 
1.06571e-05      12.3119     -47.1043 
-1.06824e-05      13.4390      47.9557 
-1.06868e-05      9.80013    -0.232516 
-1.07200e-05      11.7599     -35.4476 
2.65794e-05      12.5160      143.184 
2.12375e-05      8.06819      103.035 
1.06829e-05      10.6643      121.426 
4.24401e-05      11.7479      132.655 
4.24229e-05      10.8957      62.4449 
2.65172e-05      10.2064     -115.661 
-2.65823e-05      12.2320     -55.6616 
-2.12545e-05      13.1928      41.3751 
5.28682e-05      13.4336     -41.3789 
-3.18407e-05      10.3511      9.11817 
5.35361e-06      7.42906      79.2950 
-5.34379e-06      10.6033     -158.421 
5.33497e-06      12.0265      48.3032 
2.64858e-05      9.69825     -145.163 
-2.12185e-05      10.8767      151.078 
-1.59191e-05      3.26045      41.0247 
1.58890e-05      10.8151     -71.2281 
1.59705e-05      10.2348     -13.7938 
5.34372e-06      10.3792      33.0478 
-2.64989e-05      8.91589      13.7544 
-2.11789e-05      7.68499      122.244 
-1.06012e-05      9.98215     -113.123 
-3.17819e-05      12.4125     -52.5953 
-5.32750e-06      8.82174      97.8172 
-2.64493e-05      12.4311      135.196 
1.59369e-05      12.0328      132.440 
2.64679e-05      2.48947     -156.309 
5.32349e-06      11.5389     -55.5938 
1.06215e-05      12.4390     -124.915 
-1.06256e-05      13.2299     -43.1016 
-2.12043e-05      11.9769     -52.3253 
1.05940e-05      11.8754     -128.298 
3.70100e-05      10.0450      17.4983 
-4.23011e-05      10.7445     -158.258 
-3.17176e-05      13.4227     -133.974 
1.58761e-05      4.66304      20.0650 
1.58959e-05      11.1444     -44.7081 
-5.32838e-06      10.5231      38.9827 
3.16899e-05      12.0816      133.525 
4.22822e-05      8.54474      91.8771 
-1.59079e-05      8.03621      126.499 
5.31590e-06      11.4059      34.4982 
-5.31685e-06      10.1709     -171.519 
-1.05869e-05      10.2520     -87.2059 
-5.30920e-06      14.2570     -135.908 
3.69641e-05      12.5577      144.007 
2.11182e-05      9.56299     -18.6624 
5.29611e-06      9.61349     -56.9711 
1.05763e-05      12.0400      48.2312 
-2.11336e-05      11.6477      138.620 
1.58368e-05      10.9015     -47.6754 
-2.11489e-05      9.96231      178.735 
2.10898e-05      11.8458      52.2024 
2.64217e-05      12.0465      132.511 
2.11451e-05      12.0164     -31.7308 
2.11404e-05      9.84815     -85.6914 
-3.17000e-05      11.7482     -35.3671 
-2.11192e-05      9.38070      151.192 
-1.05634e-05      8.95301     -119.141 
-1.05637e-05     0.965599     -166.839 
5.30179e-06      11.0538     -112.667 
-1.58765e-05      10.4996     -156.658 
2.11146e-05      6.96149     -76.8790 
-1.05796e-05      9.98664     -177.933 
-2.26742e-05      9.24873      62.7156 
-5.29734e-06      10.1057     -171.692 
-1.05376e-05      11.0355     -51.6986 
-1.05551e-05      13.3951      133.972 
-2.11309e-05      11.8012     -150.002 
-1.58441e-05      11.5781      60.7337 
-2.63828e-05      13.2295     -43.2234 
1.58622e-05      10.1545      141.077 
-1.05613e-05      12.4739     -44.4784 
5.28635e-06      4.64401      20.1508 
5.28621e-06      6.99377      156.221 
-5.29234e-06      11.9591     -41.4744 
-1.58136e-05      12.8100     -40.5052 
1.05408e-05      9.55037      118.659 
-1.05468e-05      8.27632     -146.734 
5.28695e-06      9.80632      19.9131 
-1.58389e-05      11.3414     -63.3892 
-1.58023e-05      13.6190      135.060 
5.28127e-06      12.2845     -141.545 
-5.27475e-06      12.6502     -140.068 
1.05486e-05      10.7731      156.242 
5.27421e-06      13.3093      131.162 
1.05352e-05      11.2325     -24.5105 
-1.58452e-05      13.6057      134.285 
-2.10822e-05      11.6526      126.556 
-5.26876e-06      10.1486      8.38413 
1.58339e-05      13.2381      44.2674 
-5.29130e-06      13.1780     -42.6000 
-1.05498e-05      10.2564      94.8096 
1.58204e-05      11.3951      153.524 
5.27958e-06      10.3967      43.8303 
-2.10839e-05      12.2210     -55.7372 
-1.05397e-05      14.0717     -44.8272 
-5.28371e-06      12.6577      135.319 
1.05407e-05      4.93688      113.136 
1.05399e-05      10.2591     -13.8726 
1.58142e-05      11.6830     -31.7035 
1.05547e-05      11.8949     -44.1131 
-1.05310e-05      10.0634     -171.773 
1.05417e-05      5.04810     -168.110 
-1.05431e-05      6.79125      14.3234 
1.05333e-05      12.2686     -141.486 
-2.10875e-05      12.6792     -41.6124 
-1.05502e-05      10.2426     -178.657 
-1.05334e-05      13.9159      134.650 
1.05282e-05      11.2613      26.2475 
-1.57974e-05      10.2159      100.034 
1.05311e-05      11.3450     -145.414 
-2.37407e-05      13.3005     -136.829 
1.05424e-05      11.2565      47.8072 
-5.27550e-06      11.9368     -134.320 
5.27005e-06      11.2559      154.984 
-1.05328e-05      5.85861     -153.432 
-5.27142e-06      10.5384     -69.3313 
1.05528e-05      13.8201     -136.232 
-5.27547e-06      10.2704      8.39829 
-1.05401e-05      10.8590      151.026 
5.26378e-06      12.8856      39.5228 
-5.26339e-06      10.0438      84.6285 
1.05272e-05      13.0362      131.392 
-5.27487e-06      8.58109     -146.792 
5.26969e-06      7.71064      109.234 
-5.25533e-06      10.2470     -174.512 
-5.27373e-06      3.27576      40.7921 
-1.05439e-05      12.6435      135.385 
-1.05140e-05      10.5388      38.9134 
-5.26382e-06      11.4585     -62.6731 
5.26228e-06      8.75615     -143.731 
1.05224e-05      12.6753      51.2146 
-5.26022e-06      10.0054     -178.053 
5.27117e-06      10.1387      141.005 
-5.27157e-06      11.3107     -50.5969 
-5.25909e-06      10.2945      174.088 
5.26690e-06      12.0530      48.1621 
-5.26701e-06      7.92867     -142.379 
-5.27034e-06      13.3632     -132.451 
-5.27134e-06      13.6047      135.000 
5.25790e-06      9.24660      169.782 
-5.26019e-06      10.0893      171.566 
-5.26152e-06      9.39012      151.088 
5.25433e-06      12.0098     -58.1362 
-7.74354e-05      12.5756     -136.354 
6.32071e-05      14.4250     -44.8862 
6.74901e-05      13.9034      135.991 
5.38893e-05      12.9789      51.9481 
-3.87720e-05      9.10786      92.3893 
6.76773e-06      9.38121     -80.0555 
-1.93146e-05      13.6533      46.7192 
-3.10295e-05      14.2978      45.2849 
1.90861e-05      9.40043     -80.0760 
1.86422e-05      12.9733     -43.4368 
1.25371e-05      11.2438     -120.580 
-1.83607e-05      8.02418      126.382 
6.28305e-06      13.6066     -44.0481 
1.82015e-05      11.9376     -44.0500 
1.21992e-05      10.0611     -47.0128 
1.81858e-05      12.6822     -37.9562 
1.21414e-05      9.25804      117.396 
1.21060e-05      10.4232      33.0185 
1.21107e-05      13.5925     -44.1053 
-6.12745e-06      10.5016      165.779 
6.11929e-06      9.79404     -76.4184 
6.01363e-06      12.8577     -140.492 
5.99245e-06      9.31859     -80.1144 
5.97871e-06      11.2510     -120.439 
5.98352e-06      10.3827      43.7496 
! Tentative model.
! Flux (Jy) Radius (mas)  Theta (deg)  Major FWHM (mas)  Axial ratio   Phi (deg) T \
! Freq (Hz)     SpecIndex
-6.78974e-06      12.5759     -136.353 
