! Center RA: 12 21 31.69052,  Dec: +28 13 58.50019 (2000.0)
! Established model.
! Flux (Jy) Radius (mas)  Theta (deg)  Major FWHM (mas)  Axial ratio   Phi (deg) T \
! Freq (Hz)     SpecIndex
 0.0908855    0.0446338      153.004 
0.00466795    0.0202604      180.000 
0.00313087     0.128090      141.183 
0.00350264    0.0848966      135.000 
0.00223796     0.100252      126.784 
0.00192883    0.0397705      180.000 
0.00383955     0.128090      128.817 
0.00333602    0.0446338     -153.004 
0.00282352     0.141141      135.000 
0.00404700    0.0633577     -161.350 
0.00692953     0.144435      123.773 
0.00723365    0.0720098     -146.476 
0.000648290     0.161670      119.778 
0.00119735     0.266484      103.019 
0.00202226     0.271765      107.184 
0.00140921    0.0562440     -135.000 
0.00253257     0.100252      36.7841 
0.00226450     0.156126      129.735 
0.00596796     0.291183      106.006 
0.00239966     0.116465      31.0271 
0.00196634     0.169793      135.000 
0.000289130     0.188432      148.019 
0.000999782    0.0720098     -123.524 
0.000543529     0.172194      125.422 
0.000358949     0.197181      155.971 
0.00142429     0.134233      26.5651 
9.19661e-05     0.128090      38.8171 
0.000429814     0.465536      115.491 
0.00187427     0.121759      80.4216 
0.000350519     0.141777      81.7841 
0.000112292     0.100252      53.2159 
0.000509971     0.159832      90.0000 
0.000539778     0.306099      101.310 
0.000107524     0.140322      90.0000 
0.000404846     0.329594      104.100 
9.97403e-05     0.398226      107.547 
0.000476676     0.423858      109.333 
0.000286953    0.0896014      26.3505 
0.000351352     0.286260      102.105 
0.000680627     0.107434      21.7271 
0.00118958     0.180093      90.0000 
0.00124929     0.443026      108.466 
0.000439589    0.0286526     -45.0000 
0.000760829    0.0446338     -63.0042 
0.000163366     0.201375      95.7743 
0.000682622      1.22674      114.041 
0.000218203     0.126477      18.3275 
0.000888841      1.20827      114.432 
0.000829577     0.461573      107.699 
0.00117088      1.07228      98.5724 
0.000536911    0.0397705     -90.0000 
6.70218e-05     0.316312      108.392 
0.000368357     0.323277      111.801 
0.000588363     0.480914      106.965 
0.00113167      1.21679      115.301 
0.000584357      1.06954      97.5389 
0.00164089    0.0633577     -71.3505 
0.00163708      1.08889      97.4042 
0.000571052     0.331336      115.056 
0.000264305      1.23513      114.899 
0.000958906     0.772985      100.459 
0.00220707      2.97221      118.979 
0.000573004     0.500328      106.288 
0.000398925     0.152624      23.1616 
0.000231724     0.161111      82.7757 
0.00258374      1.90306      123.859 
0.000674323     0.340058      118.035 
0.000295137     0.164706      13.9729 
0.00182003      1.22558      116.157 
0.000290664      3.07572      112.567 
0.00135826     0.519084      105.684 
0.000744346     0.164706      76.0271 
0.000194067      2.97301      109.661 
0.000495427    0.0828082     -75.8378 
3.90258e-05      3.14351      113.628 
0.000794176     0.184432      12.4530 
0.000111081      3.17814      114.138 
0.00159832      3.24501      109.436 
0.000313374      1.61076      114.965 
0.000726301      2.96626      109.292 
0.000398531     0.776764      101.874 
7.17171e-05     0.792179      100.203 
0.000301312      1.60262      114.333 
0.00105135      7.24701      104.383 
0.000225188    0.0896014     -63.6495 
0.000317874      3.22083      114.971 
0.000340108      1.02013      101.326 
0.000192902      3.18283      120.598 
0.000247554     0.795867      101.585 
0.000280438     0.350038      120.964 
6.33146e-05     0.527985      37.2608 
0.000120515     0.220795      174.735 
0.000247434     0.516406      35.5377 
0.000530383      2.63731      112.289 
0.00105255      1.58211      110.721 
3.01125e-05      3.20029      120.413 
0.000286493      3.19008      120.099 
0.000110925     0.219863      180.000 
0.000542008     0.107434     -68.2729 
0.00121512      7.43417      102.427 
0.000349673      10.3115      110.788 
0.000127546     0.664707      111.177 
0.00103002      6.80513      106.035 
0.000148301      1.00028      101.554 
9.83120e-05      3.10914      113.106 
0.000173684      10.1908      109.610 
0.000306143     0.240977      175.177 
0.000633855     0.116465     -58.9729 
0.000321780      1.81078      133.203 
0.000162727     0.387976      124.520 
0.000810403     0.286260     -102.105 
0.000377342      2.95963      108.922 
0.000687048      1.79748      132.750 
0.000325433      10.3187      110.893 
0.000493466      5.99318      115.712 
0.000245206      7.25189      104.532 
0.000157308     0.500058      36.8871 
0.000120394      3.25643      115.467 
0.000365421      10.1840      109.503 
4.49558e-05     0.781185      103.329 
0.000583754      7.27150      104.492 
0.000607143      2.60336      111.633 
4.42519e-05      3.48023      115.532 
0.000920737      3.46196      115.676 
0.000404245      2.23593      68.4807 
0.000118784      1.00437      102.645 
0.000673669      5.70838      117.997 
0.000393276      2.98789      94.2199 
0.000122032     0.800182      103.007 
4.07771e-05      3.08326      112.902 
0.000118667     0.672002      112.728 
0.000101345     0.468857      129.806 
0.000721324      6.32225      110.554 
0.000391451      2.94468      118.825 
0.000212102     0.481580      131.589 
0.000328756      10.3259      110.998 
5.52774e-05     0.828371      109.748 
0.000627241      6.02023      115.802 
7.17065e-05     0.874671      100.529 
0.000372632     0.240124      180.000 
0.000939482      2.24316      68.0171 
0.000151122      2.30856      125.488 
0.000494313      4.95552      113.044 
0.000271146     0.999795      70.1234 
0.000607877      5.20057      118.736 
0.000422137      10.1773      109.396 
0.000276413     0.835434      111.056 
0.000298217      1.93014      124.018 
0.000112875      2.95336      108.564 
7.87824e-05     0.916147      53.8622 
6.40164e-05      2.98945      94.6072 
0.000135136     0.894598      100.292 
9.29110e-05      4.64462      114.685 
0.000124268      3.26486      115.776 
0.000225956      4.26034      112.350 
0.000488965      6.79977      105.877 
0.000422472      2.28092      125.358 
0.000280276      2.66703      98.1848 
0.000103367     0.313099      116.626 
0.000262223      2.97880      108.796 
8.50704e-05      4.49058      117.023 
1.42789e-05     0.961344      102.029 
0.000123612     0.904347      54.8989 
0.000123440      2.97000      94.6374 
0.000258192      1.00686      69.0391 
0.000123043     0.503350      83.1504 
0.000230572      10.3140      111.140 
0.000290484      4.51684      117.131 
4.88821e-05     0.220795      5.26495 
0.000258971      7.43000      102.280 
0.000142072     0.523357      133.490 
0.000118371     0.917561      101.319 
2.47117e-05      4.61808      114.570 
0.000139348      1.59436      109.808 
6.06275e-05      1.34124      69.9429 
7.00696e-05      1.24796      111.629 
0.000160450      1.91929      123.535 
0.000105799      4.25268      112.098 
8.00115e-05     0.748838      124.136 
0.000169522      7.27660      104.647 
0.000102565      2.95451      119.169 
0.000111789      1.23431      116.970 
2.35081e-05      3.25180      109.773 
4.58858e-05      6.32940      110.725 
0.000179696      6.46598      112.360 
1.19426e-05      10.2031      109.465 
0.000110733      4.92925      112.927 
9.94011e-05      10.1964      109.358 
0.000132072      2.65070      98.6783 
4.33160e-05     0.842640      112.294 
3.23865e-05      1.36029      70.2356 
7.53738e-05      2.01415      83.1530 
5.35980e-05      4.27076      112.000 
5.36445e-05      6.01144      115.628 
2.15943e-05      5.18282      118.844 
1.06025e-05      3.27372      116.095 
1.05247e-05      1.26682      111.291 
1.04836e-05     0.291183     -106.006 
1.04788e-05      2.94981      94.6692 
0.00104122      4.16259     -160.343 
0.00124428      10.2208     -179.441 
-0.00167562      9.00344     -124.044 
-0.000697440      8.89650     -3.48168 
-0.000485043      14.0711     -45.0583 
0.00153518      12.9421     -133.936 
-0.00111048      8.26351      140.106 
0.000752158      6.97627     -126.607 
-0.000466756      6.62100     -178.961 
-0.00102929      7.07741      161.210 
-0.000528316      8.28269      124.570 
0.000540735      8.07416      138.213 
0.000679483      12.1371      53.8471 
0.000434747      8.42544      2.04158 
0.000595472      9.14602      15.3429 
0.000504249      4.76726     -62.7896 
0.000669704      6.41340      137.656 
0.000702716      10.3576     -79.9911 
0.000735890      12.8055      138.292 
0.000511118      6.44062      36.1569 
-0.000905599      9.60745     -56.3745 
-0.000649697      12.2343      35.0148 
-0.000733599      8.87628     -3.48962 
-0.000542878      7.16247      42.5119 
-0.000420595      10.9398     -39.5087 
0.000807913      9.66711      54.5988 
-0.000648552      2.31449     -80.0491 
-0.000173793      10.4489     -144.818 
-0.000339981      12.4836      140.263 
0.000566219      2.25082      67.5388 
0.000561304      8.08872      138.306 
0.000638679      8.31221      111.007 
0.000243916      6.16544     -138.809 
0.000246537      11.6879      50.9725 
0.000395595      7.46943     -50.2129 
0.000319963      8.35451     -137.909 
0.000320594      6.98792     -126.736 
-0.000163590      6.62140     -178.786 
0.000400499      2.72976      44.1090 
0.000552695      7.52099      162.673 
-0.000398352      9.26851      99.5630 
-0.000390965      3.23274     -160.106 
-0.000395801      10.4372     -144.909 
8.30264e-05      7.73606      126.484 
0.000545365      10.2005     -179.439 
0.000467901      8.18372     -103.425 
-8.20041e-05      3.25180     -160.227 
-0.000464785      12.0211     -126.203 
0.000233668      7.53813     -13.8163 
-0.000157704      7.14624      92.4072 
-0.000309767      12.4992      140.322 
0.000232004      11.2786      63.3446 
-0.000308473      8.25053      140.214 
-0.000230521      10.9909     -133.747 
0.000228688      6.23477      96.0798 
0.000228480      8.84252      123.186 
0.000227144      6.64329      96.5703 
-0.000226545      9.08909      20.7482 
0.000228056      7.06306      88.2162 
0.000257387      10.5368      117.102 
0.000227400      6.42869      36.0111 
-7.72928e-05      10.9906     -31.6065 
-0.000152060      9.85154     -79.9458 
-0.000225884      12.5258      49.4680 
-0.000151940      9.63146      57.4651 
0.000151588      6.78026     -115.887 
0.000151344      2.00914      46.6193 
0.000149599      4.17494     -160.699 
-0.000151162      4.06466      42.0069 
-0.000150340      10.9548     -39.4438 
-0.000149808      5.81680     -11.5042 
-7.62090e-05      9.16471     -155.504 
-0.000149713      10.1703     -62.7298 
7.55480e-05      3.80524     -39.8880 
0.000148814      6.30199     -98.0288 
-0.000149177      9.39896      137.414 
7.49974e-05      11.7037      51.0350 
-7.48954e-05      7.19986      167.162 
7.45975e-05      12.1360      46.0672 
7.44828e-05      5.86114      144.299 
-7.34718e-05      8.57995      179.865 
0.000156557      5.23929     -50.1072 
-0.000416598      7.10712      96.6268 
-0.000585653      8.02737      74.0929 
-0.000992794      7.10940      96.7830 
0.000688800      12.9861     -130.190 
0.000835316      12.4999      42.4722 
-0.000207085      8.29280     -169.721 
0.000552162      8.21484     -105.388 
0.000139690      10.2437     -21.0532 
0.000262753      8.27604     -11.1459 
0.000137792      3.33470     -57.7404 
-0.000313627      6.33479     -34.1908 
-0.000581499      3.30277     -159.811 
0.000256860      8.55407      28.1837 
-0.000197024      8.51999     -89.7325 
-0.000192573      10.4021      11.3116 
-0.000484844      5.56738     -107.136 
-6.68490e-05      5.10156      106.158 
0.000353865      9.94286     -70.9812 
0.000284882      10.2626     -21.0125 
0.000464073      10.4791      51.6644 
0.000331988      3.31759     -57.5537 
-0.000277624      8.74553     -159.660 
-0.000240288      5.08210      106.222 
-0.000185179      9.25517      137.099 
-0.000506269      1.47505     -167.484 
0.000116355      9.70621     -87.9930 
-0.000120877      9.24951      39.4729 
-0.000176395      8.31274     -169.746 
-0.000336306      11.5580      139.281 
6.20606e-05      3.30676     -57.8499 
-0.000118132      8.02184      74.2320 
-0.000431528      12.4673      124.938 
0.000324692      7.94409      1.87291 
-0.000643654      6.60755     -105.087 
0.000276163      1.82885     -13.2836 
0.000272329      8.18402     -99.1376 
0.000118439      8.20968     -105.257 
0.000162141      5.22903      129.410 
-6.03579e-05      6.78825      134.521 
-0.000286758      5.15125     -111.887 
0.000406477      7.02198     -62.7066 
0.000330134      10.6004     -127.409 
-0.000115100      7.62158      112.525 
0.000114796      12.2490     -43.9401 
0.000295267      9.61887     -61.8376 
-0.000158645      10.0714     -63.0779 
0.000495554      10.4033     -32.4360 
0.000215561      10.8215     -159.557 
0.000112080      8.25616     -11.1731 
5.79459e-05      10.3622      33.1089 
-5.77263e-05      7.97256      73.3850 
-0.000447165      9.19307     -163.180 
-0.000348786      10.4219      11.2897 
-0.000336581      13.6914      132.217 
0.000339889      8.09950      84.3322 
-0.000643724      9.24088      137.017 
0.000127460      8.19786     -103.833 
0.000318968      7.40501      146.009 
0.000109058      10.4840      33.7196 
-0.000141145      5.84842     -23.5818 
0.000353447      8.55875      30.1574 
0.000296351      10.3792      33.0478 
-0.000194559      11.5549      144.441 
0.00107569      10.3640      80.4477 
-0.000149758      10.1742      120.346 
0.000106038      8.18307     -104.004 
-0.000154176      9.12514      91.8850 
0.000341057      2.29115     -135.000 
-0.000723536      10.7670     -30.4700 
0.000104853      10.1916      61.7764 
0.000574704      9.92132      32.1515 
5.34876e-05      11.1238      57.4817 
-0.000423543      11.3985      140.696 
0.000639070      9.94924     -70.8749 
0.000285871      7.32150      129.127 
0.000490616      7.43314      145.967 
0.000306854      11.4195      38.9562 
-0.000260271      6.35156     -34.0881 
5.26443e-05      6.30287     -48.2141 
-0.000148199      8.49476     -70.7568 
-0.000172606      7.88304      55.5415 
-0.000853826      11.6259      134.302 
-0.000188777      10.2841      161.635 
-0.000355344      10.7462     -35.7600 
0.000278811      11.1305      57.6224 
0.000334467      12.5699      41.3236 
0.000625129      9.79934     -107.215 
-0.000149144      8.30412     -156.583 
0.000476891      9.59180     -61.8832 
-0.000185924      8.83190      105.766 
0.000434891      9.93474      124.170 
-5.05101e-05      7.75629     -39.5593 
5.01977e-05      10.4728      33.6274 
-0.000142651      4.02047     -53.6990 
-4.95776e-05      7.60286      112.584 
-9.67969e-05      5.23225     -37.6999 
4.91919e-05      6.27483     -48.2333 
4.89598e-05      8.53622      28.2479 
0.000524399      9.44560     -62.7835 
-9.61499e-05      5.22446      25.3873 
0.000221438      3.00174      66.8447 
0.000172939      9.70552     -88.1125 
0.000244818      10.4638      51.5982 
0.000495257      10.1102     -32.1519 
-9.18013e-05      10.1556     -28.0780 
0.000137314      10.8096     -159.419 
-0.000123500      9.94824      5.65340 
-0.000128502      8.94312      71.4830 
-9.31275e-05      8.79921     -20.9095 
-0.000356213      6.83343      26.0417 
-0.000334763      8.81514      3.38193 
-0.000136546      10.5595     -106.961 
0.000216805      10.6047     -127.259 
-0.000213925      7.43451      169.932 
-4.72298e-05      7.74126     -39.6513 
-0.000210057      8.14925     -165.795 
-0.000134234      7.16925      92.8798 
0.000134984      13.0267     -130.269 
0.000114638      9.28209     -58.5715 
0.000340581      8.17819     -103.867 
-0.000201406      7.34714     -169.335 
-4.64343e-05      8.00789      74.0531 
0.000125766      10.4891      33.5684 
0.000537824      11.1409      57.5377 
9.05234e-05      3.84401     -40.5746 
0.000209318      1.84857     -13.1393 
-0.000104304      5.23414      25.0918 
0.000915354      9.90765      124.140 
0.000335921      8.16402     -99.1602 
0.000124228      4.23946      153.680 
4.59797e-05      9.79881      76.3032 
-0.000447288      9.14464      91.8810 
0.000168943      6.35825     -68.5979 
0.000423341      10.3998     -22.6221 
0.000169769      10.2094      61.8302 
0.000255239      6.26185     -48.3665 
-0.000207692      8.53601     -167.691 
-0.000165475      10.8780      146.397 
-0.000676547      7.16378      42.2830 
-0.000445283      9.94040      119.400 
-0.000311202      7.64034      89.2516 
0.000460929      10.5166      149.486 
8.56958e-05      10.2000     -5.06048 
-4.48061e-05      8.31190     -156.460 
-0.000427377      8.88093     -102.220 
-0.000320538      5.21580      25.1862 
-0.000150882      7.75420     -39.7665 
0.000279644      12.4863      42.4036 
-0.000233224      7.16765     -170.041 
0.000202610      9.78378      76.1641 
-0.000182309      5.21682     -37.8309 
-0.000269735      8.78098     -20.9549 
-0.000387865      5.43080      45.2967 
-0.000155019      7.97001     -144.399 
-0.000149893      10.1640      120.247 
4.32267e-05      7.72515     -149.849 
-4.30464e-05      8.46921     -70.8362 
-0.000199408      10.5536     -106.855 
-0.000196679      6.80850      92.8618 
-0.000234534      7.11182      96.9451 
4.26140e-05      3.82921     -40.7645 
0.000194624      13.0398     -130.337 
-4.22570e-05      10.0637     -64.4514 
4.22686e-05      9.75585      96.1197 
0.000269337      10.7796     -159.244 
4.19707e-05      8.58580      30.2089 
-0.000370729      13.1046      49.3307 
0.000116107      3.29026     -57.6691 
-0.000152654      12.4507      124.992 
-0.000495578      10.3696      58.4873 
0.000267038      9.34742      173.116 
-8.14566e-05      8.67260      157.633 
0.000119846      3.56418     -45.4521 
0.000219552      7.49054     -3.06075 
0.000416433      10.5390     -125.501 
-4.12548e-05      9.14463     -151.809 
4.10613e-05      7.96434      1.86815 
-8.06535e-05      8.09574      18.8850 
0.000500963      9.08286     -38.3848 
0.000318560      9.95893     -86.4317 
7.62901e-05      2.99817     -31.3548 
-0.000151622      10.2363     -65.0374 
0.000241316      10.3962      32.9869 
0.000108723      7.70764     -149.773 
-0.000167910      10.1282     -28.0308 
7.91797e-05      12.0749     -138.759 
-0.000504720      12.6967      38.4779 
-0.000114710      10.0733     -64.6051 
-0.000703370      12.0983      49.3590 
-7.34112e-05      8.29333     -156.404 
-0.000470586      10.2648      161.599 
0.000108880      10.4051     -142.183 
-3.96504e-05      6.33541      135.000 
-7.52087e-05      8.83743      105.893 
0.000147994      5.60064     -45.8685 
-3.94312e-05      5.73637      107.864 
-0.000142136      7.16826      92.7180 
-7.68781e-05      13.8572      42.6014 
7.58785e-05      5.28228      162.592 
7.22128e-05      8.94586      16.8967 
0.000164242      3.66837     -77.4051 
0.000225655      10.3377     -79.9715 
-0.000341726      11.0776      50.2739 
-0.000108261      9.16249     -151.869 
-3.81951e-05      5.10723      106.377 
-0.000248679      8.11492      18.8387 
-0.000319304      4.16374      39.3468 
-0.000280936      10.3692      30.8692 
-0.000175656      6.32163      135.125 
7.49458e-05      9.82934     -72.2290 
-0.000137511      10.2353     -117.968 
0.000237096      9.01355     -109.441 
-0.000281470      7.40025     -155.236 
0.000204981      9.70490     -88.2277 
0.000103251      7.33383      129.245 
-0.000237456      9.26846      137.011 
0.000101687      10.5236      149.632 
-0.000205461      11.6362     -28.7682 
-3.67995e-05      10.6510      107.821 
0.000139802      12.0768     -138.895 
-0.000104353      5.68619      108.880 
-0.000262013      10.7298     -35.8232 
0.000224927      9.27155     -58.6784 
0.000194824      3.54999     -45.6851 
-3.62617e-05      7.41814      169.751 
0.000198634      10.0515      9.27527 
0.000279312      6.05952     -166.836 
-0.000329145      11.8324      138.633 
0.000798622      10.3411     -79.8651 
0.000270518      7.35819      157.130 
-0.000626310      10.6573      107.925 
0.000102488      10.7304     -159.033 
-0.000131627      6.80752      92.6915 
-0.000120611      13.4999      130.794 
-0.000193068      5.12960     -18.6496 
0.000291209      9.81627     -72.0803 
0.000787180      10.1002      179.885 
9.79652e-05      10.4783      33.4795 
3.51396e-05      9.49861      129.017 
3.49424e-05      10.2266      61.8818 
3.49424e-05      7.52600     -148.254 
-0.000132815      1.49483     -167.652 
-0.000281962      9.94627      5.53726 
-0.000261724      5.28738      108.296 
-0.000164648      8.94712      111.232 
0.000410762      9.34978      172.998 
-0.00114504      11.6400      134.373 
-0.000185822      6.88407     -96.5030 
9.71251e-05      6.38424     -68.5012 
-3.44566e-05      10.5723     -106.825 
-0.000159543      7.13441      97.0869 
3.44162e-05      7.37686      157.191 
0.000129688      8.17336     -103.729 
6.51643e-05      10.1798     -5.07054 
-9.80400e-05      10.2012     -65.1919 
0.000859464      12.9785     -132.690 
-0.000111022      13.8709      42.6630 
-6.65331e-05      4.74002      156.893 
3.39120e-05      7.10900     -70.9511 
0.000321691      9.19037      78.3222 
-0.000449332      8.21704     -5.44455 
-0.000203552      12.0652      56.8387 
0.000154613      9.45488     -62.6744 
-6.60656e-05      13.7200      132.222 
-6.58039e-05      12.4341      125.045 
0.000746654      10.2212     -89.2134 
0.000272475      5.73355     -115.854 
-3.32444e-05      11.0034     -30.7118 
-0.000376527      5.44454      45.1508 
-0.000163417      8.14449     -165.928 
9.43308e-05      11.4322      39.0351 
-0.000372287      8.87683     -102.096 
-0.000266127      11.3828      140.631 
0.000477735      10.2174      61.9783 
3.27824e-05      5.12270     -171.016 
0.000153394      11.0461      63.6665 
6.25905e-05      13.0524     -130.402 
-0.000260472      11.0137     -30.8024 
-5.89622e-05      6.84235      26.1941 
-0.000120665      12.0578     -125.141 
-0.000258369      12.7140     -50.4265 
3.23755e-05      6.27445      15.7167 
6.26359e-05      4.31666     -159.379 
-6.39399e-05      13.1158      139.143 
0.000154630      10.2403     -179.442 
-0.000370940      11.2918     -38.9607 
6.30530e-05      13.0828      44.1960 
3.20967e-05      3.74902      30.8103 
3.20609e-05      5.62928     -45.8641 
-0.000264716      10.1538      120.148 
-0.000194965      12.6984     -50.3683 
0.000300007      12.0921     -138.958 
-3.17659e-05      11.0758     -46.2435 
-0.000146906      5.17006     -111.803 
-0.000177064      4.71414      157.027 
-0.000176101      6.87169      9.38312 
-0.000298083      13.7212      133.699 
-8.65308e-05      6.33600      135.254 
-3.15440e-05      8.45780     -155.556 
-0.000262788      13.8858      42.6063 
5.96432e-05      10.4211     -142.251 
-6.22854e-05      8.13338      18.7943 
8.46507e-05      2.98088     -31.5574 
3.14506e-05      10.0022     -76.3526 
0.000828248      13.0688      44.2556 
-3.14569e-05      9.32636     -158.882 
0.000526972      10.8421      149.271 
-9.00581e-05      8.55581     -167.720 
-3.13865e-05      7.14844     -170.014 
-3.13340e-05      9.71836     -39.4889 
-0.000292983      11.3994     -123.914 
-0.000136136      8.79566      3.38942 
0.000371404      10.5196      50.0118 
3.11839e-05      10.6165     -127.343 
0.000220779      7.08274      88.3790 
-0.000117902      9.24045     -158.546 
-0.000168720      5.45836     -102.917 
-8.91454e-05      8.43649      159.458 
-6.13167e-05      9.78466     -42.0999 
-3.07710e-05      3.29609     -160.129 
0.000167858      9.28001      128.526 
0.000619119      9.66563     -34.9720 
0.000190337      3.87323     -73.8122 
-0.000362185      10.9698     -31.4296 
0.000144289      9.70429     -88.3472 
-3.05876e-05      8.94449      110.827 
0.000272075      12.1339     -57.3831 
-0.000934979      13.7645      132.055 
0.000377957      10.1370      127.705 
0.000632272      9.15256     -83.8533 
0.000169482      7.34953      129.145 
5.87093e-05      1.82430     -12.6643 
-3.04613e-05      12.2757     -33.6376 
8.84724e-05      9.15003     -116.061 
3.03153e-05      9.90653     -54.4487 
0.000114431      11.4677     -148.333 
-0.000111840      10.3590      58.5828 
0.000113663      4.90703      60.7224 
5.88835e-05      10.6321     -127.279 
-3.00686e-05      8.39894     -34.5207 
-5.81717e-05      2.11225     -37.3055 
0.000164846      7.49165     -3.21548 
-0.000113605      10.8612      146.337 
-5.90303e-05      8.93604      111.394 
-2.99789e-05      6.00428      110.063 
-0.00100026      12.7113     -50.2979 
0.000463362      10.0266     -76.2674 
0.000170060      12.5457      127.747 
-0.000402052      9.79826     -42.1878 
-2.98833e-05      6.52162      91.2329 
-2.97559e-05      7.20241      167.814 
0.000312109      11.4377     -31.9946 
0.000138700      10.9564     -34.5902 
-5.75310e-05      5.87967     -11.5810 
0.000296506      10.6128      110.517 
-0.000261815      9.93083      119.302 
-0.000355736      8.94345      111.515 
-0.000378282      9.35622     -159.085 
-8.64887e-05      8.65288      127.771 
-5.70805e-05      8.15257      18.7485 
-5.63243e-05      11.5916     -28.7750 
-8.58793e-05      1.51390     -167.810 
-8.42178e-05      13.1305      139.199 
-0.000136511      12.2645     -33.5588 
8.54828e-05      11.6413      136.045 
-0.000190203      8.95626      110.659 
-2.93352e-05      9.73342     -39.4159 
-5.56736e-05      6.90420     -96.4839 
0.000185662      9.64904     -35.0409 
0.000512127      11.9988      55.5954 
-8.35200e-05      4.10259      43.4214 
0.000232697      9.80514     -107.324 
0.000167263      10.5194      117.150 
-0.000272689      12.0220      134.193 
2.90454e-05      10.1341      117.123 
0.000160205      10.4068      33.0770 
-2.89789e-05      6.61285     -105.257 
-8.52547e-05      11.4103     -123.995 
-9.56387e-05      6.78639      92.5350 
-0.000134394      8.38225     -34.5991 
0.000215221      9.06188     -58.9044 
-5.69554e-05      11.8066      122.479 
5.60567e-05      8.14093     -99.0473 
0.000128681      11.7376     -34.0975 
0.000108906      11.3339     -41.5645 
-0.000262374      12.5091     -129.877 
-7.95343e-05      9.13508     -151.921 
-0.000133048      9.30214      116.840 
-0.000317152      12.8024     -48.0410 
7.88955e-05      10.5109      149.970 
0.000184730      9.82229     -71.9720 
0.000283506      10.5555     -125.437 
0.000160610      10.2401     -179.551 
2.83048e-05      10.0899     -5.68939 
8.31309e-05      9.91861      124.233 
-2.81955e-05      9.08549     -137.139 
8.02201e-05      4.81346     -107.904 
-0.000314552      11.5972      134.300 
0.000132929      9.58827     -35.1478 
-5.42738e-05      11.6609      145.410 
-0.000286691      6.52207      91.4043 
-0.000729971      13.7078      133.640 
-0.000107984      8.54036     -167.559 
5.51611e-05      11.0552      63.5723 
-2.78372e-05      10.7179     -35.7354 
-0.000158233      10.1011     -27.9871 
-0.000695060      12.5782     -41.7789 
2.78261e-05      10.4125      32.9285 
-0.000383901      11.7681      122.369 
-0.000103082      8.69064      157.682 
0.000389487      10.2007     -89.3256 
2.75952e-05      10.7527     -127.594 
-7.83168e-05      7.69062     -87.0189 
-0.000224385      13.2514     -134.816 
-2.75406e-05      10.1708      101.111 
-0.000106521      12.0461     -125.062 
0.000250330      11.6007     -36.3770 
-2.74292e-05      10.2277     -65.1403 
-0.000131389      7.61852      112.865 
5.27848e-05      10.9174      57.0374 
-2.73709e-05      4.10348      43.0215 
5.26517e-05      10.1610      117.169 
-0.000542524      9.97870      10.8579 
7.66914e-05      10.0548      9.38921 
-2.71423e-05      12.8741     -48.0855 
-0.000128498      10.3313      147.572 
9.94759e-05      10.7606     -159.205 
-7.89810e-05      7.54773     -75.8905 
-0.000104197      1.86563     -160.596 
0.000106013      9.57171     -35.2176 
0.000294834      13.3960      49.7235 
-5.31359e-05      8.73611      12.1583 
0.000153622      9.95590     -70.7648 
-2.68633e-05      7.44754     -98.8037 
7.83705e-05      9.07029     -38.2845 
-2.68310e-05      5.20084     -37.9678 
-0.000451600      11.6776      145.466 
-0.000243441      8.66891      127.689 
-5.22701e-05      5.66730      111.313 
0.000100337      9.77745     -16.3960 
-2.67672e-05      4.60604      156.994 
2.67277e-05      10.7367     -127.660 
0.000303792      12.4713      42.4664 
2.65996e-05      7.39615      131.492 
-7.67135e-05      5.85577     -11.4266 
-0.000171246      10.1440      120.053 
-2.65332e-05      9.10035     -137.225 
-0.000352995      12.8989     -135.879 
0.000263970      12.5576      127.818 
-2.63463e-05      9.72057     -39.3236 
5.14355e-05      12.5048      133.704 
-2.63006e-05      4.66892      157.061 
5.11285e-05      11.0555      63.3428 
0.000461989      10.5946      110.554 
0.000219063      12.0446     -53.6448 
5.17338e-05      10.7247     -127.578 
0.000245300      3.81864     -135.844 
2.61980e-05      4.91697      60.5165 
0.000124611      6.92868      121.307 
-2.61000e-05      10.1669      100.999 
2.60786e-05      6.40285     -70.0955 
5.12844e-05      13.1385     -45.3078 
9.33692e-05      8.64312     -66.4017 
7.43097e-05      10.5102      117.052 
-0.000216732      9.16489      91.8768 
-0.000101217      10.4138     -29.3209 
2.58655e-05      12.1500      45.9984 
-5.02906e-05      8.65143      173.761 
-7.62178e-05      9.13936      70.9715 
5.14263e-05      12.3324      137.826 
2.58649e-05      10.2130     -24.4070 
-9.83043e-05      12.0483      56.7860 
-5.06926e-05      10.3860      30.8140 
0.000252726      8.62453      73.2883 
7.25817e-05      8.08841      11.7009 
0.000167383      11.3604     -52.7252 
-9.89726e-05      8.13958     -166.066 
-9.76285e-05      10.2196     -65.2396 
-2.56106e-05      4.62469      157.092 
-7.43326e-05      6.91623      118.119 
2.55639e-05      4.93396      60.6280 
2.55697e-05      5.18959      101.789 
0.000260940      7.55781     -13.7796 
-9.76801e-05      11.5739     -28.8233 
2.54738e-05      11.0638     -60.1886 
7.46749e-05      3.68715      118.505 
-5.05701e-05      10.9963     -30.8565 
0.000235734      10.9679     -34.6773 
0.000192188      12.3475      137.889 
-0.000365189      12.0038     -123.929 
-0.000620110      14.1280      135.288 
0.000147189      10.3199     -163.217 
0.000265305      10.3219     -79.8460 
-0.000424479      13.9445      44.6512 
7.41374e-05      5.46628     -51.5380 
-0.000141961      8.56014     -167.588 
2.51997e-05      8.98636      47.0743 
-7.56616e-05      13.0898      49.2751 
-7.36762e-05      10.4188      124.759 
9.56504e-05      9.19434      78.2031 
-0.000280662      6.66117      60.8940 
-0.000194727      10.9592     -31.3392 
-9.74546e-05      10.6485     -68.9761 
-7.26961e-05      4.11832      42.8292 
-0.000301959      1.87842     -161.362 
-0.000167669      12.1038     -51.1050 
-2.50074e-05      5.46276     -103.116 
-9.53996e-05      10.3259     -133.902 
0.000234176      9.08620     -38.2053 
0.000414315      13.6925     -46.1857 
4.82343e-05      9.32065      128.640 
-0.000247567      11.3826     -123.971 
0.000234593      11.0469     -60.1383 
-0.000139497      13.0766      49.3424 
2.47659e-05      10.6969     -127.556 
-0.000118728      5.45885      45.0000 
4.90933e-05      4.95771      39.5957 
-4.86465e-05      9.14599      70.8515 
0.000415515      12.1503     -57.4327 
-9.45963e-05      10.0744     -27.9374 
0.000203833      12.0103      55.5156 
0.000306492      9.93010     -70.8366 
0.000188470      6.37253      35.9361 
-9.64538e-05      11.6114      134.372 
-4.81724e-05      9.31130      116.951 
-0.000118198      6.65996     -179.484 
-4.81876e-05      7.63719      112.806 
0.000387458      10.2206     -179.550 
-0.000521872      12.7743     -48.0453 
7.13878e-05      9.52430     -36.4618 
-0.000186711      11.0017     -150.125 
-0.000278947      12.4961     -129.806 
-2.44740e-05      10.2058      153.333 
-0.000208879      9.78325     -42.2675 
0.000139693      5.64950      5.89309 
0.000186795      12.0902     -138.822 
-2.43788e-05      10.8389      146.135 
-0.000180951      9.58462     -170.755 
7.08563e-05      11.5844     -36.4364 
9.07129e-05      2.96364     -31.7624 
2.42224e-05      8.93013      108.677 
0.000276277      12.9145     -133.809 
-7.13452e-05      10.9900     -30.9993 
2.41749e-05      13.1242     -45.3706 
-2.41857e-05      11.3699      140.710 
7.13046e-05      10.6685     -127.536 
-9.30734e-05      10.2508     -82.3776 
-7.06208e-05      8.36620     -34.6750 
7.09700e-05      11.2880      58.8429 
4.79334e-05      6.93884      121.445 
2.40406e-05      8.77637      62.1488 
-7.09046e-05      10.4315     -29.2664 
2.40142e-05      3.79798      119.665 
2.39757e-05      11.4945     -148.301 
-9.42728e-05      6.88631      144.692 
4.78371e-05      4.96039      39.2784 
-0.000544937      11.7573      122.285 
7.09644e-05      7.06248      88.3744 
0.000227113      9.07924     -58.9705 
-0.000294564      9.36634      115.415 
-2.39785e-05      12.6849     -51.0147 
9.40878e-05      10.3890      110.980 
2.38529e-05      11.7023      29.1488 
0.000137257      9.60968     -61.9401 
2.38043e-05      5.29218     -52.5240 
2.38127e-05      4.96368      60.0241 
2.37617e-05      8.97257      47.1690 
0.000274947      12.3761      137.883 
0.000270693      10.0219     -76.3800 
-0.000137486      11.4802      30.8096 
7.06858e-05      10.5817     -152.904 
2.37595e-05      12.3702      52.0936 
0.000227411      12.6943     -42.8920 
0.000138230      3.80805      119.930 
0.000201634      5.26377     -52.5649 
-0.000336249      12.6722     -51.0859 
0.000383187      12.3827      52.0197 
-0.000364790      10.6230     -69.0404 
-0.000226074      11.8560      122.671 
-0.000159154      10.3944      29.1297 
4.67534e-05      10.0005     -164.574 
-4.66885e-05      10.3142      147.511 
0.000138125      4.96333      38.9493 
9.21616e-05      10.3560     -121.817 
-0.000159670      11.1628     -114.225 
0.000249682      7.54823      126.596 
-0.000207912      12.0094     -123.795 
-2.34905e-05      7.14810      42.6176 
-0.000359191      13.1114     -137.844 
-2.34238e-05      9.88860     -96.7373 
2.34197e-05      10.9004      56.9794 
0.000113164      10.5284      150.025 
-4.65144e-05      13.2657     -134.755 
-0.000135437      8.67082      173.775 
2.34083e-05      7.08318      49.9248 
0.000114768      10.5041      49.9408 
0.000493229      13.1788      129.149 
-2.33539e-05      10.6992     -30.0644 
-6.86870e-05      12.1190     -51.1629 
-0.000314700      10.1163      120.011 
-9.18029e-05      12.2870      33.7163 
0.000112412      11.4269     -31.9085 
0.000337174      10.6809     -127.622 
0.000180407      10.5269      149.391 
4.61437e-05      12.9404      128.410 
2.32248e-05      10.5910     -152.807 
-0.000517033      13.7353      133.643 
0.000134757      12.3140     -56.2586 
2.31613e-05      3.65046      118.109 
0.000559831      10.2210     -89.3270 
9.09016e-05      10.5669     -125.523 
6.87131e-05      13.6131     -48.2757 
-0.000114302      10.2111     -65.3428 
4.61505e-05      11.6406     -53.5246 
2.31372e-05      4.97383      59.8220 
-0.000291661      10.9654     -31.1957 
0.000290829      10.8003      111.624 
-2.30938e-05      10.2145      153.235 
4.56812e-05      11.4097     -31.9622 
9.16210e-05      11.2981      58.7582 
0.000559527      10.3020     -79.8262 
0.000179910      10.0193     -164.603 
0.000157846      7.09869      50.0300 
2.29890e-05      9.47685     -35.0340 
-4.52106e-05      9.55371     -42.7114 
0.000225199      10.6083     -152.855 
-6.75975e-05      11.5144      148.712 
0.000311782      11.8145     -58.0058 
8.96340e-05      9.30801      128.542 
-2.29044e-05      12.3841     -37.3872 
-0.000180131      11.0284     -63.1543 
6.74677e-05      6.07395     -167.064 
0.000290110      10.3820      110.879 
0.000177829      14.1737     -136.257 
-6.75401e-05      6.90285      144.790 
-0.000135632      14.2978      45.2849 
0.000313547      10.6199      110.620 
2.28182e-05      11.6563     -53.5816 
-0.000556439      12.0207     -123.876 
0.000290028      9.91167     -70.7996 
-2.27944e-05      8.46258     -70.9658 
0.000111417      4.97910      38.8028 
-0.000157582      13.8709      47.3370 
-2.27395e-05      10.7066     -29.9162 
2.27045e-05      12.2284      140.975 
-2.26852e-05      7.66936     -87.1622 
0.000156914      13.8758     -45.9926 
0.000292539      9.52860     -36.2914 
0.000111357      11.7215     -34.1509 
2.26593e-05      8.15057     -11.0348 
-0.000133834      6.66017     -179.309 
0.000133532      3.89269     -73.8953 
-2.25977e-05      8.32363     -169.339 
0.000222704      10.4145      158.954 
-0.000155740      12.3686     -37.4421 
-0.000510604      14.2841      45.3405 
2.25326e-05      7.08219      88.5429 
-2.25597e-05      5.47281      44.5556 
-4.45258e-05      9.95366      58.6407 
-2.25347e-05      9.28407      116.896 
-4.48737e-05      10.7599     -30.6177 
0.000111503      11.1762     -31.9838 
2.25113e-05      9.19850      78.0796 
-2.25039e-05      10.8059      146.018 
8.87265e-05      9.17489     -83.7411 
0.000155193      12.9124      128.398 
-0.000200039      10.2026     -65.4462 
-6.70723e-05      10.7962     -68.1402 
2.25075e-05      14.4251     -135.223 
0.000111365      12.9923     -132.755 
-4.47007e-05      10.3405     -133.824 
0.000111201      11.3086      58.6705 
-0.000133080      12.2757      33.6376 
0.000133143      3.81820      120.193 
-8.86411e-05      8.34354     -169.365 
-4.44899e-05      8.95090      111.636 
4.46257e-05      10.3732     -121.758 
6.46420e-05      6.36066      35.7883 
2.23049e-05      9.18290      77.9298 
6.64363e-05      9.81566      71.7105 
-0.000132946      8.57993     -167.617 
0.000331840      13.0547      44.1919 
4.44089e-05      1.44383     -47.2536 
4.44707e-05      8.17046     -11.0076 
-2.23023e-05      8.34955     -34.7541 
2.23286e-05      8.13777     -98.9064 
-6.63345e-05      8.48173     -71.0104 
-6.66504e-05      12.7139     -134.811 
8.83597e-05      10.0741      9.37111 
4.43515e-05      11.0566     -60.0506 
-2.22190e-05      4.51751      144.546 
2.22457e-05      5.66966      5.87207 
-0.000287120      10.5969     -69.1035 
6.63539e-05      5.83381      130.132 
-2.22638e-05      11.8043      138.639 
-4.43814e-05      13.8846      47.2756 
-8.84499e-05      11.6943      145.523 
0.000220713      12.9005     -133.744 
-6.62994e-05      11.6762     -142.799 
0.000132488      12.3327      127.223 
8.82157e-05      10.4892      49.8722 
2.21057e-05      10.5787     -125.612 
-6.63015e-05      11.8707      124.013 
-0.000110252      10.6816     -31.3697 
0.000170499      9.74468      30.4591 
-0.000110211      12.0205     -148.054 
-6.62455e-05      11.0019     -63.2025 
-4.42170e-05      10.7891      145.957 
0.000198418      10.6264     -152.905 
0.000132374      12.2935      55.4039 
2.21041e-05      9.07415     -38.1085 
-8.84058e-05      13.6302      47.3181 
0.000132508      14.4108     -135.281 
8.81729e-05      10.8357      149.126 
4.41593e-05      13.6261     -48.2145 
0.000133997      5.88100     -114.299 
6.61893e-05      5.07068     -60.2025 
6.63432e-05      5.86130      130.155 
0.000132374      7.56390      126.508 
-6.63964e-05      14.1290      45.7445 
2.21385e-05      12.2127      140.915 
0.000110220      10.9790     -34.7610 
0.000110368      13.8617     -46.0528 
-4.40776e-05      9.29325      117.008 
-0.000130667      7.66841     -87.3078 
-0.000176344      13.8858      47.3937 
6.61685e-05      10.0388     -164.634 
-0.000154188      12.4836     -129.737 
0.000176253      12.9934     -132.629 
8.81838e-05      9.43635     -62.8929 
-2.20650e-05      12.1063     -51.2376 
6.61497e-05      7.11366      50.1310 
8.80771e-05      12.0999      140.231 
-8.82326e-05      11.1708     -114.317 
-6.62204e-05      13.7781      132.117 
-0.000154305      12.0270      124.430 
-0.000132317      14.1149      45.8034 
2.21050e-05      12.7056      138.253 
0.000198434      10.6389      110.581 
4.41081e-05      11.0938     -59.9196 
-4.41411e-05      10.8038     -68.0404 
-0.000110126      11.2129      148.494 
-4.40583e-05      10.3540     -133.902 
4.40148e-05      10.5945     -125.551 
-8.82436e-05      12.9689     -128.424 
-2.20258e-05      8.06064      115.420 
4.40745e-05      10.5008     -155.829 
-4.40994e-05      9.58383      118.275 
8.81522e-05      11.3192      58.5829 
2.20567e-05      9.18082      77.4189 
2.20259e-05      6.38487     -95.0298 
6.60581e-05      12.3906      137.943 
-8.83345e-05      10.1946     -65.5459 
4.40325e-05      8.14672     -10.8949 
4.40633e-05      10.5902      116.227 
0.000110257      10.3674      80.3372 
2.20211e-05      3.66005      118.388 
8.81120e-05      7.15983      50.4389 
-6.62648e-05      12.7276     -134.873 
8.80585e-05      10.6933     -127.708 
-4.41788e-05      11.8939      122.782 
-6.61013e-05      9.63017      145.749 
-2.19763e-05      9.85796     -31.5606 
-2.20066e-05      10.9727     -31.0538 
6.61761e-05      12.7408     -130.416 
8.80899e-05      9.99740     -76.4655 
-0.000132236      13.7219      133.584 
-2.20250e-05      10.6799     -62.8120 
-2.20043e-05      9.50942      67.1012 
-4.40952e-05      11.6208      123.773 
-2.20198e-05      12.6841      38.4062 
6.60364e-05      12.1608     -57.3553 
2.20060e-05      9.09010     -38.0297 
8.82672e-05      10.6084      116.179 
6.61664e-05      5.84874      130.009 
-4.40486e-05      11.7196      122.172 
-2.20488e-05      9.34900     -159.201 
-2.20356e-05      8.61838      3.72415 
-4.41220e-05      11.0110     -63.1084 
2.20304e-05      11.1036     -59.8325 
-4.41049e-05      8.29302      82.3773 
-2.20287e-05      7.63072     -104.726 
-4.41067e-05      9.44355      162.373 
4.40544e-05      9.96053     -138.503 
-4.40183e-05      8.56452     -167.455 
6.61137e-05      10.2407     -89.2149 
-2.20396e-05      10.6194     -17.9907 
2.20175e-05      12.7342      138.246 
4.41850e-05      12.2820      55.4817 
-4.35404e-05      5.50176      44.2595 
-2.20083e-05      8.54102      4.03039 
2.20647e-05      11.1411     -59.7080 
2.20530e-05      10.1813     -91.0135 
-2.20473e-05      4.97265     -131.580 
2.20476e-05      3.82805      120.446 
-2.20863e-05      13.0634      49.4098 
4.41009e-05      13.8331     -46.0550 
-2.20704e-05      10.9553     -31.1085 
2.20162e-05      9.89254     -70.7610 
-2.20040e-05      10.9853      156.843 
2.20142e-05      9.75101      62.3819 
-0.000113491      8.06936      115.550 
2.21467e-05      12.7276     -130.347 
-2.20433e-05      10.7850     -68.0002 
-2.21103e-05      10.2211     -65.4934 
2.20789e-05      13.1660      129.081 
-2.20229e-05      12.8837     -49.6608 
-2.20567e-05      4.92545      95.8235 
2.20361e-05      8.61787      101.649 
0.000173169      7.22561      102.304 
-0.000150903      11.8622      138.760 
7.56804e-05      9.51316      109.275 
0.000140506      10.9970      22.2283 
9.59588e-05      9.72269     -160.411 
0.000159421      11.9411      126.006 
2.49244e-05      12.2528      37.5078 
-9.25202e-05      9.89373      68.4124 
-6.93537e-05      13.8889     -135.816 
-9.23358e-05      7.62578     -104.585 
0.000113741      7.17547      50.5420 
-6.85557e-05      6.52260      91.5822 
2.41194e-05      12.2492      37.6358 
-2.40181e-05      9.79269      121.383 
-8.98325e-05      8.14979     -166.372 
-2.37892e-05      6.76690      92.5423 
9.07990e-05      11.8273     -124.388 
-4.51202e-05      12.0931      42.0498 
9.02202e-05      11.4165     -129.099 
-6.80044e-05      11.8476      138.698 
6.71689e-05      10.5532      131.697 
-8.79740e-05      10.9587     -156.899 
6.73536e-05      12.2332      37.6937 
-2.31964e-05      7.62071     -104.437 
4.50084e-05      9.50649      109.160 
6.64590e-05      12.9145     -133.934 
2.29863e-05      12.9404     -51.5903 
-0.000109248      11.5535     -118.429 
-4.46050e-05      9.54653     -166.430 
-2.26508e-05      13.1025      49.2104 
-2.26240e-05      8.31690     -34.9103 
6.59497e-05      12.2808      138.235 
-4.36098e-05      12.1067      42.1210 
-4.40394e-05      9.75150     -119.352 
6.52387e-05      12.9283     -51.6580 
-4.39474e-05      9.81760      11.5161 
-2.22308e-05      10.2266     -118.118 
-4.35525e-05      9.62872     -105.912 
-4.34134e-05      9.12700      20.6580 
-2.20490e-05      6.89119      144.927 
-6.43380e-05      11.1533      41.2904 
-2.19515e-05      9.76524      121.347 
4.31820e-05      7.94409      91.8729 
-2.17428e-05      9.12463      56.1688 
-4.26869e-05      13.1173      49.2661 
-4.25781e-05      10.2445     -118.065 
2.15546e-05      6.18070     -138.933 
2.14801e-05      11.0646      62.7868 
-2.14904e-05      8.15441     -166.239 
-4.23565e-05      10.1869      147.591 
2.13146e-05      12.2412     -128.499 
-2.12790e-05      11.4293      140.822 
-4.22086e-05      13.1113      40.2993 
-2.12569e-05      10.5649      44.1568 
-2.11912e-05      9.87559      68.3708 
-2.11599e-05      7.53814     -146.141 
-2.11021e-05      9.24474     -106.592 
2.10111e-05      9.75371      96.0014 
-2.10029e-05      11.3246      127.537 
-2.09758e-05      6.85566      9.57058 
-2.09823e-05      10.1899      101.090 
2.09961e-05      11.5290     -148.407 
! Tentative model.
! Flux (Jy) Radius (mas)  Theta (deg)  Major FWHM (mas)  Axial ratio   Phi (deg) T \
! Freq (Hz)     SpecIndex
-2.25528e-05      13.1178      49.2661 
