! Center RA: 12 21 31.69052,  Dec: +28 13 58.50019 (2000.0)
! Established model.
! Flux (Jy) Radius (mas)  Theta (deg)  Major FWHM (mas)  Axial ratio   Phi (deg) T \
! Freq (Hz)     SpecIndex
 0.0908855    0.0447214      153.435 
0.00466795    0.0200000      180.000 
0.00313087     0.128062      141.340 
0.00350264    0.0848528      135.000 
0.00223796     0.100000      126.870 
0.00192883    0.0400000      180.000 
0.00383955     0.128062      128.660 
0.00333602    0.0447214     -153.435 
0.00282352     0.141421      135.000 
0.00404700    0.0632456     -161.565 
0.00692953     0.144222      123.690 
0.00723365    0.0721110     -146.310 
0.000648290     0.161245      119.745 
0.00119735     0.266833      102.995 
0.00202226     0.272029      107.103 
0.00140921    0.0565685     -135.000 
0.00169613     0.100000      36.8699 
0.00226450     0.156205      129.806 
0.00567892     0.291204      105.945 
0.00239966     0.116619      30.9638 
0.00196634     0.169706      135.000 
0.000289130     0.188680      147.995 
0.000999782    0.0721110     -123.690 
0.000543529     0.172047      125.538 
0.000358949     0.196977      156.038 
0.000614588     0.134164      26.5651 
9.19661e-05     0.128062      38.6598 
0.000429814     0.465188      115.463 
! Tentative model.
! Flux (Jy) Radius (mas)  Theta (deg)  Major FWHM (mas)  Axial ratio   Phi (deg) T \
! Freq (Hz)     SpecIndex
0.00187427     0.121655      80.5377 
0.000350519     0.141421      81.8699 
0.000112292     0.100000      53.1301 
0.000509971     0.160000      90.0000 
0.000539778     0.305941      101.310 
0.000836442     0.100000      36.8699 
0.000107524     0.140000      90.0000 
0.000404846     0.329848      104.036 
9.97403e-05     0.398497      107.526 
0.000476676     0.423792      109.290 
0.000286953    0.0894427      26.5651 
0.000351352     0.286356      102.095 
0.000680627     0.107703      21.8014 
0.00118958     0.180000      90.0000 
0.00124929     0.442719      108.435 
0.000439589    0.0282843     -45.0000 
0.000760829    0.0447214     -63.4349 
0.000163366     0.200998      95.7106 
0.000682622      1.22654      114.057 
0.000218203     0.126491      18.4349 
0.000888841      1.20830      114.444 
0.000289037     0.291204      105.945 
0.000829577     0.461736      107.650 
0.000809706     0.134164      26.5651 
0.00117088      1.07201      98.5836 
0.000536911    0.0400000     -90.0000 
6.70218e-05     0.316228      108.435 
0.000368357     0.323110      111.801 
0.000588363     0.480833      106.928 
0.00113167      1.21672      115.301 
0.000584357      1.06921      97.5238 
0.00164089    0.0632456     -71.5651 
0.00163708      1.08904      97.3860 
0.000571052     0.331059      115.017 
0.000264305      1.23483      114.905 
0.000958906     0.772787      100.437 
0.00220707      2.97214      118.980 
0.000573004     0.500000      106.260 
0.000398925     0.152315      23.1986 
0.000231724     0.161245      82.8750 
0.00258374      1.90263      123.857 
0.000674323     0.340000      118.072 
0.000295137     0.164924      14.0362 
0.00182003      1.22540      116.147 
0.000290664      3.07539      112.563 
0.00135826     0.519230      105.642 
0.000744346     0.164924      75.9638 
0.000194067      2.97321      109.654 
0.000495427    0.0824621     -75.9638 
3.90258e-05      3.14356      113.629 
0.000794176     0.184391      12.5288 
0.000111081      3.17805      114.146 
0.00159832      3.24500      109.440 
0.000313374      1.61059      114.974 
0.000726301      2.96655      109.290 
0.000398531     0.776660      101.889 
7.17171e-05     0.792464      100.176 
0.000301312      1.60225      114.326 
0.00105135      7.24710      104.381 
0.000225188    0.0894427     -63.4349 
0.000317874      3.22118      114.974 
0.000340108      1.01980      101.310 
0.000192902      3.18308      120.593 
0.000247554     0.796241      101.592 
0.000280438     0.349857      120.964 
6.33146e-05     0.528015      37.3039 
0.000120515     0.220907      174.806 
0.000247434     0.516140      35.5377 
0.000530383      2.63697      112.286 
0.00105255      1.58240      110.726 
3.01125e-05      3.20031      120.411 
0.000286493      3.19024      120.101 
0.000110925     0.220000      180.000 
0.000542008     0.107703     -68.1986 
0.00121512      7.43422      102.428 
0.000349673      10.3114      110.790 
0.000127546     0.664831      111.161 
0.00103002      6.80485      106.038 
0.000148301      1.00020      101.535 
9.83120e-05      3.10934      113.102 
0.000173684      10.1910      109.608 
0.000306143     0.240832      175.236 
0.000633855     0.116619     -59.0362 
0.000321780      1.81108      133.210 
0.000162727     0.388330      124.509 
0.000810403     0.286356     -102.095 
0.000377342      2.96000      108.925 
0.000687048      1.79744      132.745 
0.000325433      10.3185      110.894 
0.000493466      5.99333      115.710 
0.000245206      7.25209      104.534 
0.000157308     0.500000      36.8699 
0.000120394      3.25632      115.463 
0.000365421      10.1843      109.502 
4.49558e-05     0.781025      103.325 
0.000583754      7.27145      104.495 
0.000607143      2.60346      111.638 
4.42519e-05      3.47988      115.534 
0.000920737      3.46185      115.677 
0.000404245      2.23580      68.4841 
0.000118784      1.00439      102.653 
0.000673669      5.70824      118.002 
0.000393276      2.98811      94.2222 
0.000122032     0.800500      102.995 
4.07771e-05      3.08312      112.906 
0.000118667     0.672309      112.751 
0.000101345     0.468615      129.806 
0.000721324      6.32256      110.556 
0.000391451      2.94496      118.828 
0.000212102     0.481664      131.634 
0.000328756      10.3257      110.998 
5.52774e-05     0.828734      109.747 
0.000627241      6.02003      115.799 
7.17065e-05     0.874757      100.539 
0.000372632     0.240000      180.000 
0.000939482      2.24321      68.0089 
0.000151122      2.30868      125.480 
0.000494313      4.95552      113.047 
0.000271146     0.999600      70.1148 
0.000607877      5.20035      118.734 
0.000422137      10.1776      109.396 
0.000276413     0.835703      111.038 
0.000298217      1.93039      124.019 
0.000112875      2.95357      108.558 
7.87824e-05     0.916079      53.8807 
6.40164e-05      2.98965      94.6045 
0.000135136     0.894427      100.305 
9.29110e-05      4.64457      114.689 
0.000124268      3.26497      115.780 
0.000225956      4.26005      112.351 
0.000488965      6.79935      105.876 
0.000422472      2.28079      125.362 
0.000280276      2.66721      98.1909 
0.000103367     0.313050      116.565 
0.000262223      2.97893      108.800 
8.50704e-05      4.49017      117.022 
1.42789e-05     0.961041      102.011 
0.000123612     0.904434      54.9042 
0.000123440      2.96971      94.6355 
0.000258192      1.00658      69.0442 
0.000123043     0.503587      83.1572 
0.000230572      10.3142      111.141 
0.000290484      4.51708      117.132 
4.88821e-05     0.220907      5.19443 
0.000258971      7.42994      102.278 
0.000142072     0.523450      133.452 
0.000118371     0.917823      101.310 
2.47117e-05      4.61805      114.567 
0.000139348      1.59424      109.799 
6.06275e-05      1.34134      69.9439 
7.00696e-05      1.24788      111.631 
0.000160450      1.91927      123.524 
0.000105799      4.25248      112.102 
8.00115e-05     0.748866      124.114 
0.000169522      7.27648      104.647 
0.000102565      2.95466      119.168 
0.000111789      1.23434      116.980 
2.35081e-05      3.25171      109.772 
4.58858e-05      6.32961      110.726 
0.000179696      6.46622      112.361 
1.19426e-05      10.2032      109.465 
0.000110733      4.92930      112.924 
9.94011e-05      10.1965      109.359 
0.000132072      2.65036      98.6804 
4.33160e-05     0.843090      112.306 
3.23865e-05      1.36015      70.2328 
7.53738e-05      2.01435      83.1572 
5.35980e-05      4.27102      112.001 
5.36445e-05      6.01136      115.627 
2.15943e-05      5.18282      118.840 
1.06025e-05      3.27371      116.095 
1.05247e-05      1.26649      111.297 
1.04836e-05     0.291204     -105.945 
1.04788e-05      2.94978      94.6669 
