! Center RA: 12 21 31.69052,  Dec: +28 13 58.50019 (2000.0)
! Established model.
! Flux (Jy) Radius (mas)  Theta (deg)  Major FWHM (mas)  Axial ratio   Phi (deg) T \
! Freq (Hz)     SpecIndex
 0.0274474     0.282706     -98.0871 
 0.0123358     0.262662     -98.7088 
0.00739902     0.280627     -94.1402 
0.00586814     0.260423     -94.4620 
0.00142028     0.243395     -99.4042 
0.000533060     0.189835     -108.435 
0.00827097     0.170734     -110.586 
0.000792457     0.145849     -105.824 
0.00128258     0.126477     -108.327 
0.00460303     0.300838     -93.8616 
0.00104645     0.107434     -111.727 
0.00209270    0.0896014     -116.350 
0.00159561    0.0633577     -108.650 
0.00578515    0.0446338     -116.996 
0.00279435     0.300155     -90.0000 
0.00244787     0.320306     -93.6266 
0.000374319     0.271765     -72.8159 
0.00154558     0.200353     -90.0000 
0.000601224     0.219863     -90.0000 
0.000294680     0.220795     -84.7351 
0.000292094     0.181229     -96.4188 
0.000574394     0.240977     -85.1771 
0.000811606     0.262662     -81.2912 
0.000553242     0.260423     -85.5380 
0.00206581     0.280627     -85.8598 
0.00124129    0.0720098     -123.524 
0.00155985     0.164706     -103.973 
0.000702235     0.253192     -71.5114 
0.00204270    0.0562440     -135.000 
0.00106838     0.260038     -67.4310 
0.00380172    0.0446338     -153.004 
0.000961622     0.268467     -63.4349 
0.000958199     0.322129     -97.0919 
0.000186512     0.250509     -61.3621 
0.000715967     0.325253     -100.636 
0.00167037     0.260826     -57.4530 
0.00134228    0.0397705      180.000 
0.000341609     0.339925     -90.0000 
0.000817729     0.304558     -113.217 
0.000791090     0.340529     -86.5891 
0.000919070    0.0633577      161.350 
0.00203587     0.271820     -53.9843 
0.00124672     0.313099     -116.626 
0.000147984     0.342244     -83.3269 
0.000291493    0.0896014      153.650 
0.00167507     0.362375     -83.6991 
0.00109592     0.116465      148.973 
0.00115790     0.152624     -113.162 
0.00157409     0.178866     -116.673 
0.00176289     0.144435      146.227 
0.000352282     0.331336     -115.056 
0.000450863     0.322315     -119.728 
0.000966488     0.365154     -80.5377 
0.00207591     0.284207     -50.6787 
0.000112045     0.341468     -110.586 
0.000736043     0.354273     -106.362 
0.00163122     0.156126      140.265 
0.000642966     0.369026     -77.4333 
9.61454e-05     0.332828     -122.759 
0.00101884     0.360505     -109.453 
0.000172725     0.315980     -124.747 
0.000588462     0.373757     -74.5128 
0.00225056     0.283342     -45.0000 
0.00130355     0.188432     -121.981 
0.000499103     0.172194      144.578 
0.000753476     0.373757     -105.487 
0.000772896     0.169793      135.000 
0.000420207     0.327950     -127.657 
0.00102585     0.184676      139.449 
0.000638398     0.379669     -71.5651 
0.000927995     0.379669     -108.435 
0.000367334     0.386554     -68.7149 
0.000124548     0.340220     -130.259 
5.96919e-05     0.184676      130.551 
0.000110953     0.325575     -132.478 
5.83339e-05     0.220795      95.2649 
0.000669157    0.0828082     -75.8378 
0.000149222     0.349279     -103.290 
0.00107971     0.345185     -100.015 
0.000310464    0.0600310     -90.0000 
7.82733e-05     0.184676     -49.4492 
7.67899e-05     0.212689     -48.7190 
0.000364818     0.226037     -45.0000 
0.000465573     0.240790     -48.4109 
0.000138123     0.288454     -123.649 
6.75459e-05     0.260826     -122.547 
0.000258932     0.233573     -120.932 
0.000915018     0.205897     -118.994 
6.22539e-05     0.388092     -78.0600 
0.000418324     0.188432      148.019 
0.000738482     0.254690     -45.0000 
0.000294138     0.392593     -75.2732 
0.000206615    0.0633577     -161.350 
0.000108100     0.205897      151.006 
0.000270524     0.216445      146.310 
0.000369663     0.398226     -72.4528 
0.00152573     0.219863      90.0000 
0.000199248     0.367749     -112.431 
0.000246730     0.233573      149.068 
0.000147395     0.269397     -48.0484 
9.71165e-05     0.339586     -135.000 
0.000283201     0.404795     -69.7174 
0.000405451     0.269397     -41.9516 
0.000139479     0.250509      151.362 
4.57612e-05     0.353651     -137.236 
0.000597086     0.430710     -68.2171 
0.000300093     0.268467      153.435 
0.000725354     0.558204     -165.441 
0.000403889     0.216445     -123.690 
0.000602438     0.386554     -111.285 
0.000283376     0.288454     -56.3513 
0.000230071     0.295127      151.610 
0.000308908     0.372066     -143.777 
0.000113010     0.284207     -39.3213 
0.000317667     0.304887     -58.3833 
7.35687e-05     0.388092      168.060 
0.000525925     0.626742      16.6992 
0.000415151     0.271820     -36.0157 
0.000103230     0.407936      168.649 
3.53408e-05     0.260826      147.453 
0.000134659     0.394577      149.485 
6.82500e-05    0.0286526     -135.000 
3.42613e-05     0.438632     -65.7588 
0.000401635     0.228306     -127.925 
0.00112840     0.457182     -66.8014 
0.000781495     0.241454      24.4145 
0.000126985     0.240977      85.1771 
6.42635e-05     0.427819      169.183 
0.000395064     0.404795     -110.283 
3.19555e-05     0.228306      142.075 
0.000205825     0.421988      148.599 
3.14594e-05    0.0202604     -90.0000 
0.000935319      1.96012      118.665 
0.000215546     0.424483      171.870 
0.00136173     0.576909     -123.649 
8.88550e-05     0.282706      81.9129 
2.99646e-05    0.0286526     -45.0000 
0.000480184     0.892851      34.0373 
0.000163901     0.592344     -168.306 
0.00108424     0.665204      96.9326 
5.58994e-05     0.199903      143.087 
8.28190e-05     0.645453      16.2016 
0.000188464     0.306099      78.6901 
0.000199111     0.212689      138.719 
0.000733073     0.756280     -127.461 
0.000131255     0.443806      172.226 
0.000298910     0.449253      147.690 
2.60758e-05     0.670704      17.3808 
2.57102e-05     0.747714      15.5426 
2.54279e-05     0.588377     -125.291 
0.000170001     0.766529      15.1518 
0.000121973      1.82471      136.333 
0.000119322     0.329594      75.9005 
4.89600e-05     0.463888      172.565 
2.44892e-05    0.0633577     -18.6495 
0.000222932     0.952783      129.054 
0.000115349     0.612198     -168.690 
0.000238128      2.24037      110.365 
0.000535450      3.47231      111.981 
0.000114347     0.506166      170.873 
0.000241479     0.398226     -107.547 
0.000198790     0.876751      34.7510 
0.000231510      1.83876      135.876 
0.000371353     0.786103      14.7658 
0.000109188      2.96026      120.901 
4.41385e-05    0.0828082     -14.1622 
0.000793677      1.86666      45.0000 
6.53999e-05     0.334882      72.6613 
0.00128206     0.940150      128.096 
0.000162699     0.526180      171.223 
2.10332e-05      1.81836      140.358 
6.17329e-05     0.341468      69.4145 
6.04101e-05     0.627803     -170.853 
0.000317896      2.97033      121.224 
0.000132374      1.80551      140.853 
0.000946216      2.22110      92.0717 
0.000117002     0.810035     -159.786 
9.66894e-05     0.860182      35.5202 
2.00158e-05     0.101837     -11.4755 
0.000165716      1.71589      130.762 
0.000122096     0.349107      66.3001 
0.000300081     0.288454     -33.6487 
0.000218813     0.466502      149.020 
9.97378e-05     0.394577     -149.485 
3.66845e-05     0.681013     -176.652 
1.84857e-05     0.828371     -160.252 
0.000877067     0.804984      14.4119 
3.63284e-05     0.404436      171.464 
0.000347713     0.848995     -145.551 
0.000119014      2.23366      109.896 
0.000276543     0.840993     -162.018 
0.000574974     0.357396      63.4349 
0.000158390     0.546212      171.547 
0.000103847     0.843774      36.3196 
1.79844e-05      1.85335      136.312 
0.000111429     0.362375      173.699 
0.000265124     0.700404     -178.342 
0.000537568      1.88094      136.293 
0.000636853      1.85239      44.5569 
0.000751642     0.771858     -126.580 
6.25200e-05      1.82068      141.241 
0.000466556     0.392593     -104.727 
0.000227459      1.70273      130.245 
0.000142594     0.465536     -64.5089 
1.64034e-05     0.420241     -154.625 
0.000240013      1.28540      74.6657 
0.000107897     0.828135      37.1191 
0.000282262      1.19644      141.800 
0.000233767     0.198446      135.000 
1.59326e-05      1.18058      141.192 
0.000214856      1.95048      118.143 
0.000443084     0.366905      60.6039 
0.000118254      2.55891      117.963 
7.32473e-05      2.20774      109.580 
5.96800e-05      1.38517     -175.028 
-0.000286171      1.83199      79.3068 
2.71327e-05     0.121759     -9.57842 
0.000375755      1.36499     -174.954 
0.000273301      3.48389      111.558 
0.000330329      2.95302      121.428 
0.000141342      2.02389      142.229 
0.000725067      1.27218      73.5532 
4.22962e-05     0.812072      37.9818 
0.000456644     0.860287     -162.434 
0.000666026      2.58566      118.157 
0.000140400     0.784101      37.7692 
6.27165e-05     0.260038      22.5690 
0.000156076      2.20128      109.102 
1.34734e-05      2.88926      115.853 
0.000108428     0.510656      149.441 
0.000101009     0.645096      97.1498 
0.000100342      2.91634      116.038 
8.31124e-05     0.342244      173.327 
0.000242512      1.66419      94.1372 
0.000510631      2.33468      83.6151 
1.22363e-05      1.22431      141.620 
0.000134613      1.24025      142.201 
0.000133056     0.622720      95.5320 
0.000177157     0.768771      38.6598 
0.000106126      1.68971      129.721 
0.000139518      2.90751      115.679 
-0.000641689      2.44429      93.2911 
0.000587861      2.22189      92.5744 
0.000350517      1.32737     -173.932 
0.000239099      2.03995      142.578 
0.000213769     0.701240     -176.749 
4.18008e-05      1.92307      117.895 
3.93747e-05     0.268467      26.5651 
6.95116e-05     0.528203      150.558 
-0.000239951     0.907248      165.975 
3.07319e-05     0.512905      110.556 
6.57927e-05     0.322129      172.908 
3.98286e-05      2.74946      113.585 
0.000153450     0.304887     -31.6167 
0.000191343     0.865779     -146.310 
7.77600e-05      1.25632      142.767 
3.00878e-05     0.824622      14.0615 
-0.000174429      1.85117      79.4189 
3.98064e-05     0.605655      97.6181 
3.82284e-05     0.759338      108.435 
-0.000553190      2.27760      120.621 
0.000315321      1.64231      92.8023 
0.000107670      1.91402      117.379 
9.70943e-06     0.565518      171.838 
0.000148405     0.506146      108.408 
0.000238985     0.568616      169.891 
0.000132114      1.90958      136.274 
0.000210889     0.603304      95.7106 
6.20351e-05      3.49111      111.856 
3.55823e-05     0.937714      129.806 
1.79192e-05     0.501018      151.362 
6.65781e-05      1.27191      143.299 
5.79823e-05     0.765732      109.820 
1.76878e-05      1.22794      142.948 
1.71786e-05      2.74142      113.197 
0.000212559      2.33259      84.0913 
4.01789e-05     0.753057      39.6228 
-0.000347919      2.40931      108.881 
-0.000384243     0.902718      167.177 
-1.73307e-05      1.82042      125.623 
8.41954e-05      2.19473      108.602 
0.000169468     0.518891      152.434 
8.13910e-05      2.06843      99.4589 
0.000263125      1.86688      44.1206 
-0.000469376      1.83185      126.119 
0.000210932      1.30722     -173.838 
-0.000165585      1.02448     -141.334 
0.000144079     0.819935      12.6881 
7.90105e-05      1.90479      116.838 
-0.000274985      1.87109      79.5328 
0.000143795     0.474259     -62.3808 
0.000113784      3.50205      111.441 
8.09587e-06     0.197181     -114.029 
-0.000161688      2.56219      102.620 
-5.46281e-05     0.621094     -86.3287 
2.13074e-05     0.402700     -153.435 
1.51519e-05     0.720656     -178.389 
0.000114637     0.878907     -162.818 
0.000162295      2.14099      81.9409 
0.000362095      2.60354      117.946 
0.000221387      2.16031      126.341 
7.20297e-05      2.09107      99.9187 
4.93840e-05     0.388092     -101.940 
0.000140938     0.593248     -122.605 
-0.000221645     0.640080     -90.0000 
5.82191e-05      1.28821      143.838 
-0.000225392      1.42845      134.447 
0.000117306      1.25557      67.5118 
1.46303e-05     0.377263     -147.922 
0.000100234      2.33059      84.5868 
0.000128939      1.93204      117.102 
9.87385e-05      1.79615      135.457 
-0.000155971      1.08833     -143.976 
2.05100e-05      1.96255      92.9149 
-0.000226133      2.26019      120.882 
-0.000125969      1.78036      91.2800 
7.00283e-06     0.126477     -18.3275 
0.000131576      2.35001      84.6317 
7.25780e-05     0.322315     -60.2717 
1.36422e-05      1.25991      144.038 
3.92952e-05     0.722868      94.7636 
1.97418e-05      1.75316      101.180 
-2.60613e-05      1.00874     -140.615 
4.53114e-05      2.34159      100.824 
3.88563e-05      1.30462      144.363 
6.43556e-05      1.76750      135.464 
3.86427e-05     0.588572      170.237 
2.56672e-05      2.08767      99.3709 
-5.75684e-05      2.44321      92.8167 
3.18573e-05     0.582967     -120.989 
2.55525e-05      2.93639      121.627 
-3.16208e-05      1.89101      79.6443 
1.27126e-05     0.384685     -152.085 
6.35490e-06     0.278118     -30.3009 
6.35264e-06     0.585580      97.8809 
6.25025e-06      1.88104      44.5636 
-0.000201478      8.49645     -129.460 
-0.000250386      8.49974     -129.271 
0.000635736      4.15521      147.380 
0.000304958      9.44081     -42.6808 
-0.000358271      10.3631     -159.081 
0.000114304      8.51950      48.9033 
0.000541647      9.74438     -143.177 
0.000462488      8.53234      48.8046 
-0.000346133      8.48407     -129.358 
0.000642408      6.39417     -165.135 
-0.000120681      7.55459     -67.9164 
0.000448750      9.47650      24.8341 
-0.000435111      3.29112     -130.562 
-0.000875952      4.84076      159.691 
0.000117211      4.71559      124.628 
-0.000523396      7.54700     -68.0590 
-0.000168000      8.43707     -56.7975 
0.000112060      3.56523      79.0070 
0.000310140      9.45455     -42.7711 
0.000321326      4.72713      124.830 
0.000610327      5.34628      105.183 
-0.000377358      1.60411     -144.116 
0.000348437      3.56156      79.3151 
-0.000506267      6.53474     -78.3468 
0.000352535      1.97208      22.6719 
0.000252972      4.89526     -136.652 
0.000353676      5.95158      172.473 
-5.48721e-05      12.7880      46.2672 
0.000209189      6.31115      159.212 
-0.000349570      10.3442     -159.041 
0.000298242      7.74884      77.3298 
-0.000244156      8.44777     -56.6868 
-5.29934e-05      10.1235     -129.064 
-0.000339865      12.7734      46.2044 
0.000342156      4.60604      156.994 
0.000195769      2.51441     -58.3354 
-0.000147665      5.13468      31.4577 
-0.000243883      8.45626      53.0762 
0.000243727      10.2478     -132.629 
0.000149212      6.55439      100.728 
-0.000243196      7.01150      105.385 
0.000288546      2.81171      174.702 
-0.000288493      10.2411      41.7566 
-0.000238903      10.1113     -128.979 
-0.000242621      3.34575     -168.617 
0.000241320      10.7869     -61.0600 
-0.000191778      5.60372      177.951 
-5.07452e-05      6.52042      75.0682 
0.000143419      4.95946      57.0168 
-0.000142319      2.25539     -169.786 
0.000283402      4.71051      124.971 
0.000235892      9.90279      122.630 
-0.000327075      9.13011      125.642 
-0.000143194      3.71110      97.4354 
0.000141535      9.48502      24.9451 
-0.000187203      9.65933      31.4538 
-0.000233952      6.53410      75.2839 
-0.000234365      12.5604     -43.9688 
0.000187642      8.50425      48.8136 
9.62166e-05      4.16145      147.766 
-9.33898e-05      10.7001      142.594 
0.000138256      6.55805      100.896 
-4.85227e-05      6.57628     -148.047 
0.000142595      4.45596     -155.049 
-0.000139552      5.30572      125.491 
0.000185786      6.25973      168.760 
0.000139074      6.32225      159.446 
-0.000138099      12.7757      143.274 
-0.000140061      10.7124      142.508 
-9.32326e-05      11.1554      42.3828 
-4.73110e-05      3.27576     -130.792 
4.68028e-05      3.25475     -120.662 
0.000136835      12.2261      142.045 
4.66196e-05      4.10264     -11.5319 
-4.66708e-05      9.58217      32.2974 
-9.07533e-05      7.32943     -32.5202 
-0.000135870      8.54036     -77.5586 
0.000179705      12.0941      40.9117 
9.09995e-05      6.40383     -1.96753 
-4.60750e-05      7.98994      44.6956 
9.06466e-05      4.14433      147.616 
-4.59531e-05      5.58421      177.744 
-5.85245e-05      13.0702     -43.7601 
0.000115312      4.43760     -154.939 
8.92444e-05      5.88236      54.6900 
8.97954e-05      6.46109     -131.488 
8.89687e-05      7.05219     -55.0484 
-4.49290e-05      3.08529      105.027 
4.48371e-05      10.1545      141.077 
4.45762e-05      4.08353     -11.5866 
4.45094e-05      5.42358      118.647 
4.44875e-05      5.75998     -26.3915 
-4.43449e-05      3.01548     -114.696 
4.42171e-05      12.9024      43.4918 
4.41615e-05      10.3437      169.191 
4.40055e-05      8.74418     -143.838 
4.40132e-05      3.26513     -120.968 
4.40268e-05      2.53168     -58.5761 
0.000375874      5.34101      104.973 
-4.39676e-05      8.19753     -125.669 
-0.000310677      1.72107      38.8588 
4.39515e-05      2.06455      58.4648 
4.39351e-05      13.0118     -40.3243 
0.000285755      4.06097     -30.4790 
4.37925e-05      3.00406     -72.1670 
-4.38396e-05      12.3104     -51.9964 
-0.000434630      5.35838      12.0684 
-0.000367773      12.5476      40.0877 
0.000664420      5.60024     -152.336 
0.000289440      10.1511      96.7883 
-0.000107217      8.79180     -164.698 
0.000323502      10.9483      63.0609 
-0.000243218      5.14528      31.6502 
-0.000103754      6.30730      10.5987 
-0.000458248      5.86561      59.2386 
-0.000216395      8.77226     -164.663 
9.92360e-05      6.09383      96.0293 
-5.05610e-05      9.06317     -66.3193 
0.000261705      4.39202     -154.367 
-0.000455953      8.22078     -125.894 
-0.000546507      4.38395      96.0229 
0.000184421      3.72225     -100.524 
9.58490e-05      4.95270      81.6366 
-0.000287388      10.5825      38.8635 
-0.000137493      10.3849     -161.706 
0.000216641      3.29450     -150.948 
-0.000218181      6.28006     -145.245 
-4.84411e-05      6.30361      10.4177 
-0.000211854      3.63368     -49.9172 
4.73704e-05      3.23798     -120.839 
0.000209720      13.4385      133.674 
-4.70769e-05      5.36433      30.9638 
-0.000212450      2.88695      86.0205 
-0.000246928      9.12786      143.104 
-0.000318613      9.04057     -36.3620 
-0.000205305      3.92048     0.877355 
-0.000165389      5.38771      65.4339 
0.000210441      6.09600      96.2187 
8.72966e-05      7.90482      49.8246 
-0.000276245      6.28442      10.4499 
0.000269520      7.71951      25.9648 
0.000161678      3.22061     -121.023 
-7.95642e-05      9.08956     -66.2580 
-0.000125768      12.8272     -44.5592 
-0.000160933      5.38171      30.8528 
-7.71252e-05      9.41957     -117.437 
-0.000103824      10.0636     -128.464 
0.000158958      4.32072      88.9352 
0.000121588      8.56241      61.9999 
-8.29239e-05      6.86682      137.715 
0.000159870      4.97274      81.6706 
0.000234115      3.88500     -125.575 
-8.12031e-05      11.2699      26.1112 
4.23159e-05      8.66909      11.9850 
0.000369716      8.21539      31.5588 
4.19585e-05      13.7184     -134.408 
-0.000154284      9.31899     -164.053 
-4.10936e-05      12.5327      40.1451 
-0.000480271      10.0736     -128.713 
-4.09285e-05      9.42858     -117.542 
4.08459e-05      8.88197     -81.3216 
0.000115721      9.10247      12.6912 
-4.04521e-05      5.16254      31.5322 
-4.03312e-05      1.22288     -164.847 
7.91927e-05      6.68270      159.506 
0.000283732      8.05829      125.506 
0.000177608      5.35074     -161.700 
-0.000208099      7.19896     -172.658 
-0.000184433      5.88332      138.998 
7.69914e-05      3.71874     -100.228 
-3.95050e-05      11.1533      48.7096 
0.000158663      10.1310      96.8018 
0.000204650      11.0453      134.631 
-7.58334e-05      10.3721     -161.565 
0.000108643      8.90126     -81.3405 
0.000109340      4.76607      45.5103 
-3.84100e-05      11.8282      36.8895 
-0.000109112      11.1551      48.8511 
0.000217024      9.02548      71.1252 
3.80030e-05      9.46775      140.832 
-0.000105899      9.10245      125.610 
6.88285e-05      13.7193     -134.291 
-0.000275773      6.86768      137.950 
3.74023e-05      7.70130      26.0308 
-0.000204680      9.97345      87.0112 
7.40776e-05      9.98092     -83.6722 
0.000283313      5.45918      118.443 
3.72112e-05      3.12807     -53.0641 
-6.92226e-05      6.30543     -153.029 
0.000271132      3.40183     -41.1812 
0.000176162      10.6682     -126.462 
-0.000125028      8.73295     -132.677 
-6.80310e-05      3.90682     -105.747 
-0.000540407      3.30677     -168.481 
-0.000100454      10.5876      28.5486 
-3.62594e-05      11.8120      36.9485 
3.62234e-05      3.59698      78.1298 
0.000129247      4.84179      24.6585 
0.000159862      4.70481     -177.322 
6.92681e-05      13.1310     -131.727 
-3.58001e-05      5.97884      83.4708 
3.56852e-05      4.78029      45.3371 
0.000307266      10.4610      65.2475 
0.000540543      4.38330     -154.606 
-0.000100758      1.20887     -163.669 
0.000131793      14.2697      45.2834 
0.000429081      9.95857     -83.7752 
0.000128951      4.47323     -175.642 
0.000123323      11.1285     -130.992 
-6.26799e-05      12.8133     -44.6204 
-0.000221622      9.82877      174.278 
9.46344e-05      9.79612     -143.551 
3.49521e-05      3.11638     -53.3508 
3.49195e-05      10.1957      140.971 
-0.000633975      6.26854     -145.397 
-6.57601e-05      4.88309     -2.11360 
6.72935e-05      7.50400      116.429 
0.000155038      6.09814      96.4009 
-0.000125319      6.56968     -5.41365 
0.000130848      9.57410      128.045 
-5.54177e-05      3.91216     -106.022 
-8.54458e-05      9.85677     -14.5726 
-3.40792e-05      11.0566      126.392 
-6.51471e-05      5.37135      30.6672 
9.63276e-05      10.1287      96.6922 
-0.000177090      4.25850     -110.054 
3.37746e-05      7.28007     -175.744 
0.000121311      9.72292     -170.171 
-0.000201683      7.36803      73.9240 
6.57594e-05      3.22193     -12.9196 
-0.000201753      5.24204      48.4005 
-0.000181532      10.0963      7.05265 
-3.33053e-05      2.22001     -169.089 
-3.31763e-05      5.38229      12.2264 
5.76519e-05      8.55327      62.1153 
-3.30428e-05      10.5411      147.397 
-0.000596826      8.20936     -125.784 
3.29308e-05      3.07450     -138.423 
-3.28070e-05      2.86673      85.9924 
-0.000213185      8.40212      174.264 
-0.000140748      5.34518      130.901 
-3.26764e-05      8.03333     -113.629 
5.73320e-05      4.97561      81.4483 
-6.37696e-05      13.2519     -134.449 
-9.00011e-05      10.5948      38.9456 
3.26139e-05      9.59006      127.970 
0.000186863      10.1672      140.988 
9.31508e-05      11.7458      29.9260 
-6.22061e-05      3.35801     -131.376 
-0.000168186      5.39617      65.2382 
0.000178395      4.76590      45.1659 
3.23047e-05      3.15584     -52.9830 
0.000201849      10.6260      59.3312 
-0.000238795      4.43825      68.8714 
-3.21044e-05      11.1418      48.9295 
-3.19967e-05      3.61820     -49.7106 
-3.18815e-05      3.32589     -168.548 
3.18501e-05      3.30439     -150.641 
-0.000603344      10.5306      147.487 
-3.17515e-05      11.8082      37.0811 
-0.000195046      9.33775     -164.086 
-3.16562e-05      9.83789     -14.6012 
-3.14520e-05      8.64158     -131.621 
0.000134072      8.92871      105.591 
3.13343e-05      13.4245      133.612 
3.12601e-05      4.34065      89.2076 
3.12883e-05      2.54982     -152.424 
-8.91510e-05      5.56316     -158.044 
0.000101674      7.28154     -175.591 
-6.12303e-05      1.74898      38.9746 
-0.000230335      5.86805      138.868 
-3.10431e-05      13.8560      47.2803 
-0.000116525      8.56043     -105.726 
0.000140202      8.59885      10.3156 
-0.000160258      13.0879     -136.794 
0.000117390      5.35049      104.506 
-5.99842e-05      11.4403      52.5288 
-0.000141283      8.02523     -113.497 
-3.04736e-05      6.44646      5.16243 
0.000242359      8.08611      125.535 
-0.000112956      11.9955      121.569 
-3.03469e-05      8.53209      96.3268 
3.03173e-05      3.21214     -52.8517 
-8.66241e-05      12.3541      129.153 
-5.82509e-05      10.3600     -161.425 
-0.000230961      8.19686     -82.1444 
0.000427122      9.91929      19.6769 
0.000259443      11.3872      28.9956 
-0.000460869      13.8279      47.2871 
-5.85591e-05      8.31449     -103.635 
-2.99281e-05      3.92022     -143.711 
2.98526e-05      7.71099      25.8344 
-5.74111e-05      10.1500      99.1845 
2.98763e-05      9.58614      128.137 
-5.80268e-05      9.77260     -15.4299 
-5.71517e-05      1.20333     -164.594 
2.96861e-05      5.40421     -143.429 
5.68097e-05      8.89823     -81.4695 
0.000452805      14.2555      45.3412 
-0.000137989      9.97453      86.8950 
2.95244e-05      3.24095     -12.8425 
5.58192e-05      2.54104     -151.823 
-5.56089e-05      6.28805     -152.949 
8.34475e-05      10.1809     -37.6579 
-0.000207862      8.55148      96.3124 
-0.000186873      13.2377     -134.387 
0.000248423      9.60208      128.062 
5.73957e-05      3.22772     -53.0608 
0.000107519      7.30333     -175.445 
2.90320e-05      13.1181     -131.663 
-0.000106660      6.42628      5.17868 
5.26222e-05      5.59327      111.609 
0.000136508      14.2562      134.318 
2.88891e-05      7.72507     -155.691 
5.69933e-05      9.35227     -172.874 
-2.87681e-05      5.31687      30.5172 
-0.000101348      9.14407      143.180 
-0.000273892      11.3255      64.4774 
-0.000149425      6.28068     -18.3787 
0.000154784      10.2206     -179.550 
0.000374041      11.7361      29.8435 
5.33240e-05      4.68533     -177.310 
-0.000275518      9.84893      174.289 
-5.50370e-05      5.84064      23.4064 
5.11043e-05      5.41989     -143.552 
0.000259309      6.81780      27.9894 
-7.97450e-05      6.72039     -113.130 
2.80484e-05      13.7051     -134.230 
-7.97532e-05      11.2134      120.316 
7.97781e-05      9.32967      7.01756 
-0.000104889      11.4248      52.4693 
5.12711e-05      10.7698      61.0098 
5.33911e-05      9.18226      168.570 
-2.76330e-05      8.31954      76.7985 
-0.000197472      11.3291      131.993 
-0.000152565      8.46521     -55.7873 
-0.000286648      10.6474      154.878 
-0.000183460      9.36259     -164.005 
0.000237109      9.84593      35.6585 
9.57547e-05      5.33581      104.763 
0.000123503      13.1029     -131.722 
0.000135834      9.33216     -172.859 
0.000141094      8.87376      149.679 
0.000184994      5.34441     -161.906 
-0.000232425      10.3785     -161.459 
5.23344e-05      8.93603      166.802 
-2.69435e-05      4.28934      119.318 
7.90188e-05      7.11221     -126.194 
-0.000152455      8.46800      52.9707 
-9.35111e-05      11.3427      132.069 
-7.78304e-05      7.19640     -172.818 
-5.19010e-05      9.75849     -15.5762 
-7.62750e-05      10.7891     -124.043 
-0.000167861      5.28830     -151.784 
-5.22392e-05      9.50771      34.0262 
-2.67079e-05      2.29582      71.7131 
2.66660e-05      7.70661     -155.629 
-2.65820e-05      8.54625     -105.889 
-0.000143345      8.42228      174.278 
2.65386e-05      12.7312      47.9935 
4.83455e-05      6.10043      96.5900 
-7.24975e-05      6.57162     -5.58951 
-9.19554e-05      5.33369      30.4108 
-2.61395e-05      10.0762      7.06680 
0.000168961      10.1515      140.916 
-7.43984e-05      8.31929     -103.771 
2.60969e-05      4.85606     -36.9602 
2.61262e-05      10.7619      60.8631 
7.03335e-05      11.0595      134.706 
-0.000122980      10.7961      27.2294 
7.28045e-05      11.6292      136.535 
2.59657e-05      5.35541      104.708 
-2.59747e-05      5.59327     -158.391 
-5.04761e-05      2.81174      52.8090 
0.000150302      4.47174     -175.901 
-0.000585511      9.37144     -75.6656 
-2.57837e-05      9.12379     -66.0744 
2.56808e-05      3.24393     -53.2759 
9.10648e-05      14.2421      134.259 
-0.000252198      8.47635     -11.7068 
-2.56056e-05      12.3664      129.223 
0.000312470      4.80750      72.3173 
0.000491792      9.95647     -83.8868 
-9.56496e-05      10.7003      159.769 
-0.000114536      10.0939      6.94275 
0.000513981      13.6357     -46.1884 
-2.54215e-05      10.1533      99.2973 
-4.92573e-05      6.15218     -170.076 
-9.41953e-05      10.2289      33.1946 
0.000186552      9.54020      81.6832 
-0.000253594      8.64292     -55.4628 
0.000214055      6.26376      99.3698 
7.04265e-05      5.44137      118.544 
4.85163e-05      4.85953      24.5626 
7.25510e-05      7.62603      82.4631 
-0.000184853      10.1673     -177.860 
-2.50714e-05      11.7726      37.3359 
4.84941e-05      7.64357     -155.581 
7.12294e-05      8.87595     -81.5801 
2.49675e-05      7.36437     -2.02040 
2.48342e-05      9.85878      122.660 
-4.72726e-05      10.9277     -53.1089 
-2.48008e-05      8.64599      128.141 
0.000180639      7.11666     -125.966 
4.57820e-05      4.83989     -37.1044 
-9.32645e-05      2.17471     -55.8713 
-0.000339376      10.0762     -128.554 
-7.16160e-05      8.03239      161.113 
0.000159088      9.50187      25.1626 
9.19452e-05      8.20519      31.4427 
-7.12702e-05      5.61142     -158.465 
2.44336e-05      4.00596      54.9614 
0.000156156      5.79695      76.6329 
4.74663e-05      9.59892     -10.4447 
-0.000246001      9.87739     -173.838 
0.000112177      9.60790      127.131 
0.000132152      8.40321     -85.7700 
4.67959e-05      9.22425     -91.7388 
-2.40373e-05      8.32658      123.040 
0.000149311      10.4525      65.3484 
8.68685e-05      11.2436      135.216 
-7.04894e-05      9.54287     -148.541 
-0.000108366      9.79783      124.860 
-6.72681e-05      9.95783      162.950 
0.000108724      7.50466      152.887 
-6.96936e-05      2.84013      52.7305 
-6.77069e-05      4.55824     -121.181 
8.67628e-05      10.6196      59.1834 
4.41913e-05      13.6498     -46.1271 
0.000506208      10.3401      169.298 
-4.66883e-05      10.1300      99.2028 
2.37815e-05      7.30496     -175.286 
6.62505e-05      10.2448     -154.935 
2.36271e-05      10.9943      114.046 
9.99735e-05      10.3012     -98.0357 
0.000124971      9.61253      111.227 
-2.35939e-05      4.16019    -0.279036 
-0.000211723      8.63395      128.039 
6.61343e-05      7.36512     -2.17792 
-2.33510e-05      9.99476      86.9013 
-0.000230537      7.63744      144.267 
-4.61895e-05      13.2241     -134.326 
0.000230063      10.3887     -127.333 
-2.33693e-05      10.0858     -128.800 
4.47939e-05      4.03418      54.8910 
0.000115287      8.54381      62.2354 
0.000170043      9.35480     -172.751 
-2.31316e-05      3.68196      17.0538 
2.30638e-05      8.57200      131.497 
-8.52561e-05      5.88523     -63.7813 
9.07613e-05      11.7666      139.897 
0.000125966      7.43988      46.0911 
0.000185033      11.1000     -26.1961 
-0.000643847      12.4887     -134.287 
4.42386e-05      12.8877      43.5538 
4.45865e-05      9.02233      88.6036 
2.27330e-05      5.55809      135.148 
-6.39393e-05      5.22861      48.5665 
-0.000221859      10.8052      27.0882 
0.000145668      11.8414     -54.8325 
-2.27914e-05      5.30616     -151.887 
-2.27808e-05      13.0598     -136.800 
-8.31165e-05      2.91574      137.221 
-0.000203875      8.01322      161.066 
-6.46531e-05      12.0061      121.652 
-2.26245e-05      12.3508      129.282 
4.36800e-05      10.2363     -155.037 
-4.29294e-05      9.99583      86.7896 
6.53457e-05      6.34457     -2.16900 
0.000147567      11.1099      65.8811 
-0.000146155      8.54928      96.1775 
0.000138823      10.2400     -179.664 
6.34927e-05      9.60521      111.114 
4.30233e-05      5.86170      12.6147 
-0.000117109      8.32395     -103.901 
8.00087e-05      12.8730      43.6159 
-2.22048e-05      1.59232     -144.707 
0.000161708      11.9711      125.548 
6.35590e-05      5.43620     -143.679 
4.14215e-05      10.9758      114.089 
-0.000197139      10.3487      19.4138 
2.20563e-05      8.62541      41.8968 
-0.000187321      10.2217      8.09858 
-0.000141677      9.14819      143.358 
-4.37022e-05      8.75970     -155.013 
0.000255382      9.04310      88.4784 
-8.47777e-05      9.55307     -148.441 
0.000102131      5.61819     -152.432 
0.000250642      11.0196      51.6333 
4.34180e-05      9.89340      19.6059 
8.31333e-05      8.67998      155.205 
2.19274e-05      2.55891     -152.037 
-4.31664e-05      11.4372      52.3888 
0.000109852      7.61775     -155.654 
0.000154910      10.5746      71.3606 
-0.000123477      9.86909      174.301 
-2.17953e-05      2.85568      52.9675 
-4.10029e-05      5.84633     -74.7294 
4.11901e-05      8.07479      125.423 
-2.17314e-05      9.91488     -75.5147 
-4.26199e-05      13.1536     -134.138 
-0.000175353      1.70534      39.2859 
5.97749e-05      9.60097     -67.9757 
0.000102237      13.2953     -129.630 
-7.92694e-05      6.72642     -2.55758 
8.01699e-05      9.22526      168.495 
-0.000167727      10.7254      159.708 
-4.17341e-05      2.14658     -56.0155 
-0.000138764      10.9474      150.202 
0.000112177      12.7321      48.1200 
2.14100e-05      4.99794      81.2519 
0.000121880      11.3793      29.1342 
-6.19909e-05      11.3141      132.062 
-8.16743e-05      9.50255     -28.1273 
-4.14143e-05      6.54951     -5.43037 
0.000854268      14.2412      45.3992 
6.11988e-05      1.87765     -38.9495 
0.000156753      8.81430      146.384 
4.17910e-05      9.74090      154.067 
2.11760e-05      5.55771      135.438 
0.000155040      9.60247     -10.5591 
-0.000137041      8.73346     -155.080 
-2.11297e-05      11.5764      127.208 
7.52533e-05      13.5398      131.886 
-2.10960e-05      13.0691     -134.007 
-2.10670e-05      5.64205     -158.800 
-6.07446e-05      7.40613      49.5983 
4.12851e-05      12.8737      43.4885 
0.000138384      12.7312     -141.762 
0.000210754      12.5583      45.0000 
-9.76465e-05      3.51290      48.2384 
0.000118734      8.70876      21.5557 
9.33866e-05      6.51704     -120.424 
0.000257829      9.91248      19.5666 
0.000155287      9.51953      25.1127 
-2.07653e-05      8.74202     -154.959 
-0.000364714      10.1479     -177.741 
-4.01141e-05      8.19412     -82.2847 
-5.98076e-05      13.1395     -134.074 
0.000240313      6.55277     -155.862 
0.000176292      13.1923     -132.543 
-4.04067e-05      2.84353      53.2934 
-2.05706e-05      3.65107      16.5504 
-4.06961e-05      13.2772      129.804 
2.05514e-05      5.01836     -152.722 
2.05183e-05      9.61458      128.157 
-2.05045e-05      9.22667      79.7593 
0.000114870      11.7382      51.2933 
2.04167e-05      7.84108     -105.384 
-3.96438e-05      9.96379      162.838 
2.03180e-05      10.6803     -126.549 
9.80072e-05      7.02910     -104.668 
-2.02717e-05      4.40410      95.9952 
-3.94823e-05      10.2414     -78.6242 
-4.00860e-05      8.40020      174.397 
-3.93380e-05      5.12282      76.4543 
-4.02421e-05      9.34295     -59.3732 
5.92382e-05      9.62015      127.227 
-0.000115616      13.0978     -134.009 
-9.39466e-05      5.89663      138.849 
-3.87900e-05      6.70977     -113.357 
-5.72663e-05      7.85317     -159.582 
-3.93063e-05      13.0725      49.9013 
-2.00768e-05      6.25377      125.368 
-0.000113044      8.53188     -77.8194 
-7.63904e-05      8.45651     -11.7347 
-3.91072e-05      11.7528      37.5342 
-5.83082e-05      12.3541     -140.847 
-7.84085e-05      13.8131      47.2301 
-0.000170074      12.3091     -52.4602 
1.99225e-05      9.72268      154.014 
-9.17272e-05      8.34357      122.964 
0.000159242      7.10521     -125.839 
1.98315e-05      4.40161     -154.719 
3.94428e-05      13.1699      40.9986 
-5.79671e-05      8.69769     -13.4296 
-1.98120e-05      9.11559     -66.1908 
7.58050e-05      12.0501      44.1926 
1.97436e-05      9.86932      122.755 
1.96857e-05      4.78599     -177.124 
-0.000584352      13.3057      129.816 
-1.96456e-05      12.2065      42.0773 
9.24015e-05      10.5890     -72.5229 
1.96206e-05      14.0292      45.0000 
3.83311e-05      4.07844     -30.3346 
-7.52480e-05      12.0164      121.731 
-1.95876e-05      10.1681     -177.746 
0.000201823      8.86344     -96.8705 
0.000387425      11.1182      65.7858 
-1.95576e-05      9.90983     -75.6281 
-5.67658e-05      11.0202     -30.6600 
0.000202057      9.33470     -172.736 
-1.95433e-05      5.48090      5.02682 
-3.84957e-05      7.01546     -3.75945 
5.76836e-05      13.1832      41.0650 
-1.94554e-05      10.7235     -110.870 
-3.77568e-05      9.22309      79.8832 
1.93932e-05      6.12449      96.9387 
0.000167133      14.0148      45.0586 
1.93881e-05      8.14530      73.7472 
-3.72353e-05      5.18211      38.4149 
0.000109666      11.3763     -43.1477 
-9.29026e-05      13.1259     -134.013 
4.75813e-05      11.2293      135.290 
0.000108892      13.5263      131.823 
0.000303403      1.88030     -38.0956 
-0.000108891      10.5056     -106.366 
1.91746e-05      9.08263      70.8480 
-0.000163281      12.1929      42.0066 
7.40507e-05      5.36296     -161.971 
-0.000128329      9.35329     -59.2664 
0.000125080      7.53159      152.825 
0.000109409      10.6296      59.0931 
0.000364545      7.01467     -104.870 
-1.91373e-05      9.09066      125.506 
7.77368e-05      8.68818      155.088 
7.25636e-05      12.6078      37.0704 
-0.000142531      9.48469     -28.1850 
-1.90004e-05      12.3256     -140.861 
5.57242e-05      9.86694      35.4318 
3.75450e-05      11.3970      29.0846 
-0.000128922      13.7998      47.2896 
-1.89884e-05      5.86699      23.5027 
-0.000216012      13.0446      49.9142 
1.89279e-05      7.34562     -2.18370 
-0.000127296      9.88652      174.429 
1.88933e-05      8.36092      118.895 
7.51800e-05      6.36021      159.574 
3.68805e-05      4.81346      72.0961 
-0.000144366      5.46146      5.04476 
0.000235774      13.1984      41.0073 
1.87829e-05      4.76576     -177.112 
-0.000126532      8.56942      96.1629 
1.87426e-05      13.3078     -129.695 
0.000198848      12.7351     -141.887 
0.000321379      11.1080      65.6477 
9.10741e-05      12.5922      37.1239 
-0.000106359      13.0648     -41.4002 
0.000162506      13.1917     -132.665 
0.000143840      9.60402      127.301 
0.000142676      9.68152      69.6914 
8.99800e-05      8.67987      11.6966 
-0.000177110      7.62563      144.391 
-0.000702357      14.1422     -45.1139 
-7.13553e-05      9.15224      143.528 
1.85152e-05      10.8810     -46.8611 
-1.85034e-05      8.32885     -104.036 
-1.85078e-05      12.3413     -140.920 
-1.84467e-05      10.2023      8.11401 
-8.97087e-05      11.4235     -150.068 
3.61072e-05      5.81959     -175.266 
-1.83991e-05      8.74109     -13.4982 
3.67619e-05      10.2095     -92.4685 
-0.000228913      9.37497      129.632 
-0.000103712      5.86773     -63.6971 
8.94033e-05      11.3892      29.2233 
1.83476e-05      13.5549      131.829 
3.59526e-05      4.49120     -175.918 
-1.83510e-05      5.89297      23.6077 
1.83118e-05      12.8591      43.5506 
1.83025e-05      8.86063     -52.6119 
1.82695e-05      11.7537      29.7943 
-3.61048e-05      10.1140      6.92887 
0.000123624      8.35115      118.774 
-7.16717e-05      1.00315      113.497 
-7.19248e-05      12.4258      49.4377 
3.60167e-05      11.0683     -139.691 
-1.82021e-05      5.58170      168.004 
1.82061e-05      5.70583      172.747 
3.56306e-05      8.15099      73.6105 
0.000332267      10.3202      169.277 
-8.62252e-05      4.30882      93.7245 
5.37710e-05      12.3479     -45.9849 
-3.62007e-05      12.5032     -134.222 
-8.82257e-05      5.05740      41.6378 
-0.000244489      10.6557      154.783 
-1.81173e-05      8.19142     -82.4251 
-5.39404e-05      11.3762     -125.339 
7.46196e-05      12.5727      44.9347 
3.59057e-05      9.53788      25.0610 
-0.000157515      11.0034     -30.7118 
0.000419236      10.2104     -92.5821 
-5.29279e-05      12.3636      129.355 
-5.88173e-05      5.80377      98.5209 
1.80421e-05      6.12216      96.7574 
0.000227068      6.95071     -96.9386 
-0.000192710      13.7558      132.880 
-1.80499e-05      9.89890     -173.738 
9.31358e-05      8.32504     -9.12271 
3.55145e-05      9.22124      168.619 
-0.000273964      11.3342      64.3850 
-3.56812e-05      5.91154      23.5290 
-0.000540481      12.4891     -134.155 
-1.80157e-05      8.71740     -13.3987 
-0.000123152      13.1118     -133.950 
7.04044e-05      5.41657     -135.449 
-8.80674e-05      7.76094     -14.3251 
-0.000191604      12.3123     -52.5902 
-8.75476e-05      5.60152      168.047 
-8.83595e-05      10.9739     -65.6747 
-0.000174904      10.8588     -62.8205 
-8.77783e-05      12.6340     -144.144 
1.78629e-05      5.00095      81.0309 
-0.000539175      13.7849      47.2324 
1.78523e-05      8.53439      62.3557 
-0.000139500      9.91904     -173.750 
-0.000123175      11.3645     -125.256 
1.77734e-05      14.0148      44.9414 
0.000104934      9.59339     -68.0879 
0.000208202      9.97480      117.593 
-0.000189779      9.98006     -119.802 
0.000295437      13.1780     -132.600 
1.77409e-05      11.5074     -51.1383 
-8.63781e-05      8.35461      123.081 
-1.77084e-05      6.71752     -113.510 
-1.77394e-05      8.80402     -13.5305 
-3.54022e-05      12.2968     -52.5350 
-1.77301e-05      11.1892     -40.7222 
1.76850e-05      3.55661      5.48446 
8.69080e-05      9.33660      93.4373 
-1.76854e-05      8.54093     -105.763 
-0.000156368      13.2161      43.0374 
0.000139369      14.0005      45.0000 
5.22541e-05      3.80122     -17.7697 
3.50680e-05      10.6076     -72.5546 
5.24538e-05      5.37625     -162.235 
-5.22662e-05      7.99477      161.021 
-3.48629e-05      8.82371     -13.4997 
-0.000225675      12.4126      49.5088 
-0.000104081      12.7399      143.491 
-1.76425e-05      9.89679     -173.850 
-5.24252e-05      11.3845     -52.5659 
1.76853e-05      10.5619      71.2214 
-1.75889e-05      11.0992      42.3696 
-3.49444e-05      10.6520     -142.934 
0.000103985      12.3620     -45.9173 
-8.68583e-05      8.84327      124.588 
-8.69427e-05      1.89253     -15.9485 
1.75525e-05      10.9169     -146.659 
0.000121356      10.6131      58.4047 
0.000104107      6.01341     -176.186 
-6.92797e-05      10.3422      19.3118 
0.000156018      13.1851      40.9408 
-1.75074e-05      10.8883     -53.2146 
-1.75114e-05      5.93822      23.6302 
-0.000113746      8.51281     -77.7917 
-1.74410e-05      4.34687      110.187 
5.20738e-05      11.5226     -51.1992 
-1.74914e-05      1.02987      114.081 
0.000138572      12.1889      36.3246 
3.47498e-05      9.54648      25.1712 
-0.000121231      11.4411     -150.119 
-5.20495e-05      10.7522     -53.4708 
5.19321e-05      12.5870      45.0000 
1.74700e-05      10.5811      71.2567 
-0.000227016      9.37071     -59.3297 
6.91888e-05      12.7386     -142.015 
-0.000199514      11.0979      42.5173 
3.47525e-05      10.2811     -98.0514 
-1.73825e-05      11.2025     -40.8007 
5.19506e-05      10.3394      43.9796 
-1.73611e-05      10.1535      173.098 
-1.73426e-05      8.53544     -105.632 
1.73678e-05      11.3029     -136.361 
-0.000138430      11.3532     -125.175 
0.000103711      12.5638      37.1060 
1.73833e-05      3.40328     -40.7082 
-6.91543e-05      1.02177      113.044 
9.47315e-05      9.58851      127.371 
5.19153e-05      12.7192     -141.831 
0.000224864      10.8076     -67.7051 
-1.74234e-05      13.1540     -134.013 
-1.73434e-05      9.84016     -171.819 
-0.000207548      13.0576      49.8462 
-0.000120883      13.2148     -136.716 
6.92029e-05      10.0981      83.8615 
-1.73352e-05      4.44560      68.6278 
0.000293822      14.2420      45.5123 
-1.72545e-05      11.4006     -52.6278 
1.72763e-05      11.2723     -148.200 
3.44864e-05      8.54720      10.6549 
-6.91497e-05      1.86826     -15.5155 
6.89882e-05      10.5684      71.1174 
4.73166e-05      6.50680     -120.270 
1.72851e-05      4.98489      80.7660 
-5.18005e-05      11.0004     -65.6256 
-0.000155800      11.3883     -52.7088 
6.90857e-05      12.1383     -57.1735 
-5.18715e-05      9.43376      164.252 
-0.000121029      10.1334      173.084 
-0.000121140      11.9849      31.4867 
0.000138500      9.67003      69.5428 
0.000103833      11.2883     -136.290 
3.44542e-05      8.15673      73.4739 
1.72836e-05      9.29076     -18.3164 
-6.90786e-05      13.1405     -133.952 
5.18054e-05      9.87379      3.01897 
-1.72573e-05      5.96392      23.7268 
1.72376e-05      11.3817      29.3569 
3.45361e-05      8.61565     -143.211 
-0.000103602      8.51666     -105.667 
0.000120985      10.6800     -73.1272 
-5.19659e-05      11.2586      139.178 
0.000129499      7.56770      104.699 
-3.44688e-05      12.1779      42.0704 
-5.18767e-05      5.45972      4.83296 
0.000259714      10.4258      78.6051 
1.72833e-05      4.04073      54.2644 
1.72579e-05      10.7040     -118.576 
6.91569e-05      10.3098     -173.317 
3.45490e-05      9.13108     -58.4338 
6.91712e-05      11.2889     -148.252 
-3.46123e-05      10.8762     -53.3001 
-0.000138242      10.8495     -62.9157 
-0.000121028      12.6221     -144.219 
3.45135e-05      9.71737     -112.765 
3.38151e-05      5.39554     -162.301 
-1.72064e-05      7.97561      160.974 
-1.72010e-05      12.3765      129.428 
5.17809e-05      4.05259      54.0319 
3.46808e-05      8.86579     -96.9957 
3.46011e-05      9.24110      168.644 
-0.000107194      7.78057     -14.2882 
-8.63408e-05      10.9820     -65.5820 
-5.18941e-05      4.42743      68.5358 
-1.72875e-05      10.1794      8.01721 
3.46143e-05      9.27153     -18.3558 
6.92637e-05      10.3122     -173.205 
-5.18751e-05      10.8483     -53.3188 
-0.000127029      5.62135      168.090 
-6.90611e-05      9.38694     -163.919 
-0.000138351      14.1136     -45.1142 
0.000138450      11.1059      157.222 
-0.000138395      11.3416     -125.092 
8.67015e-05      13.9867      45.0565 
6.91457e-05      7.00950     -104.710 
3.45385e-05      9.35806      93.5537 
0.000138780      14.2557      45.4564 
3.45261e-05      10.6226      58.9432 
3.45696e-05      9.29715     -18.4349 
3.46042e-05      9.71893     -111.867 
9.43108e-05      8.94769     -53.3607 
3.45268e-05      10.7315     -118.619 
3.46166e-05      12.1213     -57.1216 
-1.72500e-05      4.33992      109.936 
5.19218e-05      12.6008      44.9373 
5.19981e-05      9.12049     -58.5423 
-5.19203e-05      13.1264     -133.888 
1.72499e-05      10.6606     -73.0956 
1.72826e-05      10.1122      10.6003 
3.45408e-05      10.5876      71.1528 
5.19717e-05      12.7575     -142.197 
-5.20483e-05      10.3231      19.3490 
-1.73075e-05      9.13639      61.6374 
3.45831e-05      8.36892      118.707 
-1.72757e-05      12.3608      129.487 
3.02433e-05      10.3259      43.9017 
-1.73068e-05      7.64211      144.479 
-3.47654e-05      9.38106     -59.2233 
-4.56002e-05      7.95646      160.926 
8.67408e-05      10.8340     -67.6466 
1.73058e-05      8.16231      73.3426 
-6.94772e-05      13.2000     -136.656 
-5.21109e-05      9.56597     -92.0364 
3.47058e-05      10.5747      71.0173 
1.72951e-05      4.96819      80.4978 
-3.47624e-05      2.09882     -172.336 
1.73434e-05      10.6025      58.4980 
1.73453e-05      11.4049     -43.1524 
5.21813e-05      6.54779      135.371 
1.73426e-05      7.55820      152.756 
-1.73127e-05      7.79952     -82.9317 
-3.47702e-05      9.12853      61.4715 
-5.20761e-05      11.2175     -65.9005 
8.42126e-05      6.24752     -118.698 
-3.47368e-05      11.4580     -150.168 
3.47150e-05      9.27793     -18.4745 
3.47402e-05      12.1103     -57.2021 
-1.73496e-05      10.7186      159.805 
-1.73184e-05      4.30755      93.4555 
-1.73403e-05      10.9903     -65.4858 
1.73794e-05      10.0930      10.6207 
1.74172e-05      12.5660     -132.936 
-1.73949e-05      10.1594      8.03315 
-1.73872e-05      8.87083      124.624 
-1.73702e-05      6.26404     -145.143 
-1.74039e-05      11.0405      23.0345 
1.74380e-05      8.95234     -53.5383 
0.000107718      10.5046     -28.1760 
-1.73980e-05      10.0170     -133.382 
-1.73864e-05      8.57554      157.800 
1.73781e-05      10.4780      75.4074 
1.74521e-05      7.56258      104.551 
-0.000136173      10.4905      167.449 
-0.000112688      11.9090     -45.8169 
3.94974e-05      8.95632     -53.0783 
-3.93169e-05      10.7450     -111.169 
0.000178525      12.2700      142.084 
-0.000105426      11.4932     -49.6580 
5.65722e-05      8.61221     -143.025 
-5.52493e-05      10.7638     -130.706 
5.14247e-05      9.58475      127.541 
5.62940e-05      10.8627     -46.0440 
5.51108e-05      8.55083      10.7834 
5.34865e-05      9.02067      30.6589 
-0.000175854      6.72563     -113.668 
-3.63500e-05      10.5477     -106.750 
1.84800e-05      8.94013     -53.0003 
1.84160e-05      7.63553     -155.714 
8.63296e-05      9.56869      127.615 
-9.95729e-05      12.4130     -140.952 
3.55686e-05      12.6642     -133.144 
-3.56217e-05      11.2326      139.332 
1.81165e-05      11.6416     -144.018 
9.80214e-05      10.3540      43.9018 
-0.000101824      13.0562     -43.8194 
1.77374e-05      11.0234      51.7782 
5.06796e-05      7.65400     -155.777 
-1.74180e-05      11.2418     -41.0323 
6.35558e-05      11.6573     -144.074 
0.000138270      10.8773     -46.1180 
-3.34210e-05      13.9166     -135.699 
-0.000196142      10.5421     -106.648 
-0.000125453      7.83489     -159.533 
-3.34534e-05      11.1851     -40.0689 
-3.35845e-05      8.37146     -73.3421 
4.91429e-05      8.53166      10.8079 
6.26981e-05      8.34505     -9.10066 
1.70657e-05      6.53338      135.247 
-0.000165665      11.2458      139.254 
0.000123569      10.9759     -117.451 
6.17715e-05      8.94417     -53.1820 
-4.59907e-05      11.0844      37.4494 
5.51041e-05      11.2743     -136.365 
4.90224e-05      14.3405      134.546 
0.000194800      12.2043     -57.0379 
-4.27822e-05      5.64044      168.131 
-4.79821e-05      4.35897      109.845 
0.000104582      12.6628     -133.271 
-4.64841e-05      10.7786     -124.336 
-1.65755e-05      9.99699     -119.746 
-4.85437e-05      11.8949     -45.8869 
0.000203258      12.7472      48.1808 
-3.24527e-05      11.2305     -40.8139 
-6.25543e-05      2.75502     -39.6957 
-0.000150977      6.07337      115.976 
3.12600e-05      5.75179     -154.234 
1.62799e-05      8.63189     -143.291 
-3.17953e-05      7.63036      144.603 
3.17988e-05      9.46196     -18.7396 
7.61678e-05      7.00650     -55.5866 
-0.000129281      10.6637     -142.850 
4.65168e-05      11.9546      125.605 
-1.60600e-05      8.33764      123.157 
1.59811e-05      7.59226      104.803 
-7.44830e-05      7.24020     -155.345 
0.000145193      9.58061      127.707 
-1.59089e-05      4.70942      59.0785 
-7.41601e-05      10.0888     -128.644 
-1.59110e-05      10.7676     -124.250 
7.39293e-05      5.68002     -146.199 
4.50148e-05      11.2189      32.3316 
-1.57635e-05      9.73828     -86.4658 
1.56976e-05      11.6413     -136.183 
-4.35859e-05      11.8649     -146.204 
-8.38987e-05      4.35239      109.603 
-3.07594e-05      3.95341      41.5143 
4.37132e-05      12.4797     -37.0525 
-3.04960e-05      8.39015     -73.3803 
-4.43163e-05      11.1005      37.3858 
5.97995e-05      7.67248     -155.839 
-1.55028e-05      2.29506      120.363 
2.94098e-05      9.05841      30.8099 
-3.05813e-05      5.04396      41.4658 
-5.87164e-05      8.34874      123.273 
0.000113156      12.1094      40.8489 
0.000165321      14.3269      134.491 
-3.02516e-05      8.49578      52.9408 
-0.000138739      13.9176     -135.815 
-0.000126753      10.3442      113.592 
-1.53329e-05      10.2185      150.576 
-4.37856e-05      11.2172     -40.7356 
-5.71471e-05      8.05012     -60.6943 
1.52542e-05      7.32225     -110.467 
2.99808e-05      6.26530     -118.609 
-1.52341e-05      11.8668     -45.8864 
-0.000137285      9.75911      124.734 
9.86016e-05      12.7223      50.8071 
-1.51836e-05      8.18531     -68.1996 
-4.25613e-05      7.61385      144.515 
0.000192827      11.2129      148.494 
4.33626e-05      7.60113      24.0676 
9.79419e-05      9.44278     -18.7791 
-0.000179187      10.8220      66.7023 
-1.50786e-05      8.56727      96.0282 
-8.29991e-05      8.70259     -72.0666 
5.75220e-05      9.93112     -130.425 
5.46730e-05      3.47477      5.27845 
-9.57931e-05      5.89428      138.577 
4.34351e-05      12.3609      131.064 
-1.48519e-05      5.78448      98.5495 
-8.54362e-05      10.9650      150.254 
-1.47705e-05      8.85479      124.696 
-1.47305e-05      4.40626      96.2572 
-9.50064e-05      5.10471      74.5521 
-2.89687e-05      12.5735     -44.1634 
6.89704e-05      12.2575      142.159 
1.46911e-05      9.92110      127.792 
2.75786e-05      8.62613     -35.7544 
2.89991e-05      8.53622      61.7521 
-9.50145e-05      12.6665      139.418 
-9.44659e-05      10.2057      31.9442 
8.04322e-05      11.1683      55.2849 
6.88767e-05      8.66850     -143.632 
-2.88935e-05      3.93827      41.7097 
-4.21753e-05      10.6482     -142.787 
1.45549e-05      4.83773     -46.0055 
2.86389e-05      3.47669      5.61092 
1.45215e-05      11.6160      136.743 
-5.48833e-05      10.1823      8.13010 
4.15566e-05      4.57430     -175.484 
4.17651e-05      7.48296     -151.240 
-1.44426e-05      8.50855     -77.9250 
-6.74753e-05      8.50800      52.8320 
-2.78608e-05      4.72682      59.2047 
-5.39129e-05      9.24210      115.236 
9.31427e-05      9.66223      178.696 
-0.000120553      7.41879      49.4836 
4.15328e-05      10.3405      43.8239 
1.43678e-05      6.57127     -155.935 
4.21845e-05      9.90916      127.703 
6.70428e-05      10.9884      141.505 
4.04686e-05      10.0799      28.9539 
-4.03581e-05      8.17808     -68.3265 
5.51916e-05      10.6947     -41.7377 
-8.10285e-05      1.59740     -145.720 
-2.76765e-05      7.81651     -83.0913 
-8.14744e-05      11.3010      131.988 
0.000133369      10.0736     -4.67007 
2.80062e-05      6.27503     -118.772 
-1.41670e-05      9.72003     -86.3439 
-2.67648e-05      4.38612      96.2861 
2.68286e-05      9.68203      50.0273 
0.000107348      10.5224     -28.1239 
-2.77234e-05      3.51896      16.1703 
-4.09959e-05      11.8804     -45.8189 
4.13845e-05      8.54452      61.9361 
1.40612e-05      8.63755     -35.8594 
1.40428e-05      7.77422      169.326 
5.30213e-05      7.31014     -110.665 
2.72140e-05      8.54390      131.489 
-2.71741e-05      9.16030      53.2559 
-2.76275e-05      12.4258     -140.880 
6.66446e-05      7.01970     -105.024 
1.39800e-05      10.1877     -126.780 
-6.70392e-05      3.95127      41.9209 
-1.39599e-05      7.09948      45.0000 
-4.05271e-05      12.5595     -44.2254 
2.76826e-05      7.68049     -155.706 
-8.02619e-05      7.00266      105.743 
-6.69364e-05      3.28291     -168.757 
-4.06302e-05      6.80043      123.364 
6.67273e-05      7.01797     -55.4501 
1.38362e-05      4.82368     -46.1787 
2.67234e-05      10.7967      60.9659 
2.70743e-05      4.54244     -107.160 
4.05427e-05      11.2081      32.2441 
1.38223e-05      10.0931     -4.66105 
-1.38092e-05      4.13330      75.4264 
1.37674e-05      11.5451      129.094 
9.17444e-05      7.75504      169.299 
1.37042e-05      7.43139      81.0190 
-2.63267e-05      11.8710     -146.337 
9.20199e-05      10.9669     -117.361 
2.63872e-05      4.20576     -144.872 
5.30206e-05      10.8633     -46.1951 
1.36363e-05      7.61128      149.526 
-1.36020e-05      10.9747      150.166 
2.67127e-05      8.62114     -35.9383 
-3.94273e-05      11.2194     -40.5897 
7.79896e-05      9.91571     -130.501 
-6.49306e-05      5.77239     -20.6990 
-2.67674e-05      11.3927      52.3451 
7.81281e-05      6.41303     -165.180 
1.35457e-05      9.33570      123.110 
-2.67046e-05      10.1010     -128.730 
-6.49192e-05      9.37629     -75.5500 
3.93608e-05      12.3462      131.124 
-3.96020e-05      12.3227      129.272 
1.34615e-05      5.97512     -175.967 
9.10155e-05      6.26061      99.1936 
9.03371e-05      7.69827     -155.766 
-7.81173e-05      6.09159      115.893 
5.24527e-05      9.89314      127.775 
-6.44032e-05      5.68156      102.812 
-3.91399e-05      7.21255      21.3033 
-5.19096e-05      1.08817     -110.422 
6.49564e-05      7.42826      81.1733 
3.86900e-05      6.30152     -118.842 
1.33602e-05      11.2007      135.290 
-5.20301e-05      7.12813      45.0000 
3.91153e-05      10.1999     -126.872 
-1.33478e-05      10.7947     -124.278 
2.63295e-05      4.80908     -46.0115 
5.20246e-05      5.90887      172.609 
2.62927e-05      4.89095     -121.288 
2.61496e-05      10.5938      71.3956 
-2.59489e-05      8.65288      127.771 
2.60939e-05      12.6494     -133.207 
2.58942e-05      12.5128      141.555 
2.58491e-05      9.30980     -18.6672 
-1.31013e-05      10.7872      27.1372 
-2.58312e-05      12.8140     -40.2519 
3.83435e-05      7.62158      149.395 
1.30428e-05      7.51011     -151.184 
-2.58381e-05      11.2305      139.186 
2.57260e-05      5.80697     -17.4375 
-1.30280e-05      5.76526     -20.5107 
-1.29939e-05      8.70885     -71.9397 
-1.29804e-05      8.35946      123.385 
-2.58655e-05      10.1284      130.517 
-2.55183e-05      6.15223     -167.232 
-1.29976e-05      8.04022     -60.8202 
-1.29823e-05      8.98254      9.48199 
-2.57406e-05      11.2335      120.491 
-2.57234e-05      11.5217     -49.6464 
-2.57417e-05      11.8522     -45.8183 
1.29344e-05      7.52544     -120.859 
1.29088e-05      9.35267      123.042 
2.54759e-05      4.81973      71.8669 
1.29012e-05      10.6817     -41.6596 
1.28974e-05      9.34294      168.642 
-1.28753e-05      2.82497      54.5030 
-3.80333e-05      10.0985     -128.889 
1.28686e-05      3.15903      61.6513 
-1.28369e-05      7.25794     -155.409 
-1.28489e-05      6.81159      123.506 
-1.28372e-05      11.5423     -46.1247 
-1.27956e-05      8.68351     -18.3911 
-2.56179e-05      9.59305     -97.0678 
-3.80532e-05      5.07256      41.4857 
-1.28035e-05      10.5227     -106.680 
1.28252e-05      12.6719      36.8516 
1.28109e-05      8.17578     -164.536 
-1.27961e-05      8.55944     -55.5660 
3.81575e-05      9.29249     -8.91466 
1.27050e-05      12.7457      48.0522 
-1.27175e-05      10.6212     -70.3015 
2.55086e-05      7.07301     -143.973 
1.26724e-05      12.6598      36.7782 
-1.27088e-05      9.73130     -58.5309 
-1.26988e-05      11.4051      52.2645 
1.26772e-05      7.65068      82.1870 
1.26478e-05      8.86424      1.80945 
-7.82507e-05      10.1622      8.14626 
7.76425e-05      10.6682     -41.5783 
-5.16125e-05      11.4087      52.4073 
3.88077e-05      9.41503      13.8900 
-2.62371e-05      7.81591     -159.481 
6.44028e-05      13.0552     -40.2791 
-2.61339e-05      12.3351      129.342 
1.31774e-05      10.6331      58.8497 
-5.11994e-05      10.2355      150.629 
-2.55229e-05      11.2067     -40.5139 
-5.13447e-05      8.57092     -55.4543 
7.64147e-05      9.77434      140.479 
-3.80630e-05      12.8169     -40.1268 
-2.58319e-05      10.7698      27.1846 
-2.54765e-05      8.66531      127.877 
-2.55034e-05      13.3830      136.454 
-2.52819e-05      4.15219      75.4941 
-1.27837e-05      12.5454     -44.1591 
2.52818e-05      5.92896      172.634 
1.27395e-05      10.5683      71.4608 
2.50795e-05      8.44946      111.523 
1.27020e-05      9.22489     -91.8646 
-1.26826e-05      6.79533      123.597 
-1.26540e-05      9.71881     -86.4587 
2.50672e-05      7.31731     -110.814 
2.51062e-05      5.82028     -17.1875 
-2.49782e-05      11.2712      120.613 
-2.53384e-05      12.3479      129.415 
2.50552e-05      10.6259      58.7032 
-3.76907e-05      12.5308     -44.2236 
-1.25529e-05      7.15380      20.9711 
1.25488e-05      11.8510     -147.542 
1.28370e-05      9.36374      123.146 
-1.27867e-05      11.1832      48.8441 
1.27648e-05      5.92653      54.7524 
1.26660e-05      9.16854      30.9839 
-1.26134e-05      7.60254      144.635 
-1.26003e-05      10.1885      32.0045 
2.50732e-05      6.23424      98.8557 
-1.25410e-05      6.98870      105.948 
-1.25329e-05      9.26043      115.182 
-1.24983e-05      10.0568      60.5812 
1.24466e-05      10.3780     -152.201 
-1.24342e-05      7.09355      81.7345 
-1.24518e-05      8.92440      129.363 
-1.24097e-05      7.43930     -32.7074 
-1.23686e-05      12.7519      143.417 
1.23677e-05      11.7642      139.758 
1.23820e-05      9.00334     -55.4993 
! Tentative model.
! Flux (Jy) Radius (mas)  Theta (deg)  Major FWHM (mas)  Axial ratio   Phi (deg) T \
! Freq (Hz)     SpecIndex
1.28002e-05      11.0198      51.6325 
