! Center RA: 12 21 31.69052,  Dec: +28 13 58.50011 (2000.0)
! Established model.
! Flux (Jy) Radius (mas)  Theta (deg)  Major FWHM (mas)  Axial ratio   Phi (deg) T \
! Freq (Hz)     SpecIndex
 0.0714950    0.0286526     -135.000 
 0.0306480    0.0446338     -153.004 
 0.0208667    0.0446338     -116.996 
0.00903685    0.0562440     -135.000 
0.00708009    0.0633577      108.650 
0.00444074     0.101837      101.476 
 0.0209494    0.0998015      90.0000 
0.00495053    0.0720098     -123.524 
0.00426079     0.121759      99.5784 
0.00403496     0.141777      98.2159 
0.00626745    0.0633577     -108.650 
0.00485560     0.161111      97.2243 
0.00169338     0.181229      96.4188 
0.000798872     0.220795      95.2649 
0.00188894     0.240977      94.8229 
0.00175745     0.260423      94.4620 
0.00316181     0.282706      98.0871 
0.00698189     0.645453      106.202 
0.00193001     0.302778      97.5477 
0.00544976    0.0828082     -104.162 
0.00125194     0.640096      104.460 
0.00323617     0.325253      100.636 
0.00739382     0.664933      105.714 
0.00117844     0.345185      100.015 
0.00678437     0.101837     -101.476 
0.00518921     0.369026      102.567 
0.00575269     0.120062      90.0000 
0.000563616     0.690066      106.878 
0.000548628     0.392593      104.727 
0.000137479     0.786103      104.766 
0.000399884     0.670704      107.381 
0.00115865     0.804984      104.412 
0.000933664     0.651397      107.913 
0.00612345     0.120062     -90.0000 
0.00124820     0.824622      104.062 
0.00227260     0.373757      105.487 
0.00236594     0.626742      106.699 
0.000727078     0.349279      103.290 
0.00180346     0.849131      105.006 
0.000350933     0.632861      108.456 
0.000799943     0.873342      105.959 
0.000714968     0.878907      107.182 
0.000263799     0.904347      108.029 
0.00103902     0.519084      105.684 
0.000578816     0.538618      105.101 
0.000443822     0.563425      106.480 
0.000428148     0.582160      105.935 
8.53924e-05     0.601667      105.406 
0.000416220      2.65830      114.445 
8.44892e-05     0.675085      101.997 
0.000240606     0.694181      101.662 
8.16026e-05      2.66674      114.842 
0.00199735      2.68514      114.660 
0.000524055     0.569504      108.435 
7.88530e-05     0.588045      107.834 
0.000152009     0.690371      100.015 
0.000354349     0.710331      99.7310 
0.000272543     0.550320      109.102 
0.000132512     0.707189      98.1129 
0.000127488     0.557279      111.071 
0.000127866     0.576231      110.346 
0.000126911     0.681013      93.3479 
6.18294e-05     0.680152      91.7070 
0.000239235     0.583302      112.144 
6.08108e-05     0.660651      88.2426 
0.000119219    0.0600310     -90.0000 
0.000118908     0.661537      86.5534 
5.85631e-05     0.810060      105.749 
0.000284174      2.71103      114.863 
0.000700016    0.0802914     -90.0000 
5.78655e-05     0.663064      84.8056 
0.000168930     0.564587      112.919 
5.70610e-05     0.645096      82.8502 
5.67300e-05     0.835176      106.709 
0.000272884     0.647814      81.1378 
0.000110243     0.860287      107.566 
0.000215302      2.74660      115.452 
0.000211008     0.545983      113.747 
0.000157853     0.885104      108.435 
5.22228e-05      2.77329      115.636 
0.000253531     0.651243      79.3763 
5.18598e-05      2.58948      113.192 
5.17488e-05     0.572781      114.786 
5.12319e-05      2.79966      115.837 
5.08493e-05      2.55536      112.551 
0.000340288     0.910821      109.241 
5.03710e-05      2.81791      115.658 
4.98695e-05      2.54766      112.130 
9.74095e-05     0.501727      113.536 
4.95593e-05      2.84463      115.835 
9.74596e-05      2.52156      111.893 
0.00129770    0.0998015     -90.0000 
9.72068e-05     0.528183      114.599 
0.000328069      2.95451      113.961 
0.000142438     0.635505      77.2437 
4.77550e-05      2.51408      111.465 
9.17149e-05      2.85352      116.201 
0.000138936      2.48853      111.195 
9.21919e-05     0.354273      106.362 
0.000223711     0.599425      115.667 
0.000390912     0.936453      109.960 
0.000345031     0.640096      75.5402 
0.000219536      2.48155      110.775 
0.000630284      2.96521      113.458 
0.000124748      2.86253      116.565 
7.90335e-05     0.334882      107.339 
0.000243723     0.625863      116.565 
8.37862e-05      2.45544      110.501 
0.000157186     0.310708      104.976 
0.000277304      2.44842      110.057 
4.04017e-05     0.954815      109.560 
0.000302247     0.961787      110.697 
0.000712096     0.645453      73.7984 
3.87494e-05      2.87130      116.913 
0.000109916     0.653108      117.360 
3.79296e-05      2.63874      117.542 
0.000145226     0.608475      117.387 
0.000147400      2.41594      109.335 
0.000108135      2.61209      117.345 
3.64188e-05      2.88053      117.273 
0.000270289      2.40931      108.881 
0.000302217     0.980766      110.279 
3.48269e-05     0.420241      115.375 
0.000524354      2.98312      113.308 
0.000168981      2.05568      107.549 
0.000132465      2.58514      117.168 
0.000161652     0.635182      118.200 
6.63404e-05      2.90717      117.451 
6.69148e-05     0.447333      116.608 
0.000256097     0.101837      78.5245 
9.67476e-05      2.04988      107.029 
6.43921e-05     0.429314      117.819 
0.000261954     0.632861      71.5436 
0.000121664      2.54875      116.565 
0.000153963      2.03052      107.196 
6.18628e-05      2.93415      117.607 
3.13810e-05     0.304558      66.7829 
0.000240221     0.987971      111.381 
0.000179175      2.40307      108.441 
3.08078e-05     0.412159      119.085 
3.04836e-05     0.313099      63.3735 
3.04027e-05     0.483985      119.745 
8.56553e-05     0.680116      118.035 
8.80421e-05     0.438758      120.073 
0.000487118      2.02462      106.648 
2.96202e-05      2.84801      119.449 
5.81850e-05     0.322315      60.2717 
5.74735e-05      2.52259      116.367 
2.87694e-05      2.94360      117.956 
0.000135675     0.662301      118.859 
5.61767e-05     0.421988      121.401 
0.000458877      1.00686      110.961 
2.80148e-05      2.85765      119.790 
0.000161152      2.39674      107.981 
0.000107625     0.332828      57.2415 
5.42676e-05      2.42145      120.793 
5.44344e-05      2.96151      117.773 
0.000202139     0.432889      123.690 
0.000103463      2.51366      115.953 
2.69015e-05     0.449253      122.310 
5.31277e-05      2.97516      112.950 
7.69004e-05      2.86777      120.141 
0.000414218      2.99383      112.799 
0.000145478      2.34104      123.150 
2.59084e-05      2.97100      118.118 
0.000187675     0.344213      54.4042 
9.78709e-05      2.39079      107.536 
9.35053e-05     0.651397      72.0869 
0.000108932     0.706913      118.742 
4.80904e-05      2.98823      117.942 
0.000335546      2.00017      106.252 
0.000130768     0.689870      119.521 
2.40744e-05      2.50486      115.536 
6.97790e-05      2.89548      120.286 
0.000131751      2.47819      115.331 
0.000236059     0.444008      125.785 
0.000130000      2.38476      107.072 
2.28415e-05      2.99742      118.272 
0.000109981      1.01401      111.990 
6.39311e-05      2.90537      120.619 
0.000353087     0.141777     -98.2159 
0.000190714      2.33002      122.733 
0.000117109      2.37889      106.606 
6.28967e-05      3.01528      118.089 
0.000454917      4.37458      117.501 
0.000177885      1.02511      110.571 
8.11316e-05     0.355922      51.8496 
0.000193125      1.99480      105.714 
7.44599e-05      1.03212      111.585 
5.90865e-05      2.37339      106.154 
7.55547e-05      2.91574      120.961 
0.000201608      2.98604      112.440 
5.71192e-05      3.02487      118.428 
9.19984e-05      2.46959      114.906 
0.000177403     0.456152      127.850 
0.000170619     0.716875      120.161 
0.000154270     0.353651      47.2356 
3.76250e-05      2.36783      105.684 
5.43910e-05      2.33853      104.875 
5.37204e-05      1.04767      103.250 
0.000119108      3.05168      118.588 
1.80265e-05      1.97530      105.874 
0.000370935      1.96986      105.307 
3.38217e-05     0.427737      127.372 
6.89057e-05      2.33341      104.394 
0.000178161     0.164706     -103.973 
0.000184937      1.06302      101.937 
0.000123290    0.0848966      45.0000 
0.000106259      2.92621      121.301 
7.97212e-05      1.03975      112.623 
6.42374e-05      2.46112      114.479 
6.50665e-05      2.32846      103.911 
4.66967e-05     0.734463      119.367 
9.89909e-05      2.97864      112.094 
0.000168601      3.16940      109.919 
1.59910e-05      2.31913      122.312 
0.000320736     0.440329      129.468 
7.65518e-05      2.29498      102.578 
1.55597e-05      3.06107      118.909 
0.000127901      2.30203      122.581 
0.000279106      4.39413      111.078 
7.16817e-05      3.07882      118.726 
4.45500e-05     0.189835     -108.435 
7.21812e-05      4.40125      117.618 
1.49139e-05      2.43462      114.258 
5.78912e-05      2.29081      102.101 
5.61840e-05      1.04771      113.646 
0.000181963     0.744225      120.676 
4.32081e-05     0.215843     -111.838 
4.19542e-05      2.42636      113.822 
0.000207742     0.241454     -114.414 
8.15133e-05      2.28665      101.605 
0.000223142      3.16281      109.587 
9.85957e-05     0.367178      45.0000 
9.03131e-05     0.659734      75.9796 
7.83666e-05      4.41032      117.843 
0.000110614      3.08861      119.056 
8.23942e-05      2.93639      121.627 
6.32663e-05      1.05916      100.904 
3.78399e-05      2.41825      113.383 
7.38292e-05      1.05568      114.616 
0.000341048      1.94502      104.889 
6.33333e-05      2.28266      101.107 
0.000384813      1.26140      64.6392 
0.000104779      2.29158      122.170 
0.000267308      4.41304      110.984 
8.16185e-05      4.41982      118.075 
4.76902e-05      2.27898      100.625 
7.68452e-05      1.26769      96.3552 
0.000203213     0.268467     -116.565 
0.000128382     0.655281      77.6349 
4.52314e-05      2.27533      100.124 
1.14711e-05      2.41057      112.957 
1.14020e-05      1.03927      101.115 
0.000152092     0.754763      121.999 
9.85696e-05      2.38473      112.692 
5.33738e-05      1.06428      115.608 
0.000699417     0.700404      178.342 
4.20444e-05      3.11617      119.201 
7.35591e-05      2.27186      99.6210 
7.05662e-05      1.03556      100.015 
2.14296e-05      4.42939      118.306 
2.13098e-05      3.18846      109.795 
0.000487131     0.621223      14.9091 
1.98011e-05      2.97108      111.732 
6.94400e-05      4.45649      118.403 
3.04109e-05      1.94010      104.332 
0.000113378      3.18190      109.465 
2.00352e-05      2.28086      121.740 
0.000335727      2.26868      99.1352 
9.89593e-06      1.07320      116.583 
2.70271e-05      4.38688      110.831 
9.82420e-06      3.12573      119.513 
4.65557e-05      1.10008      117.019 
5.36762e-05      1.24365      94.6029 
4.61384e-05      3.15270      119.659 
2.77010e-05      2.26429      121.999 
3.65471e-05     0.411820      129.084 
0.000281471     0.278118     -120.301 
5.35706e-05      4.46616      118.632 
2.66052e-05      4.28675      114.533 
9.15607e-06     0.327950      52.3435 
9.07221e-06      4.40582      110.738 
0.000105689      1.01296      99.0785 
2.67807e-05      4.50964      109.156 
8.97755e-06      3.42209      113.411 
4.12152e-05      2.90892      121.509 
8.73343e-05     0.765692      123.285 
0.000184347      3.45622      113.899 
5.85386e-05      1.10943      117.952 
6.48328e-05      1.91624      103.889 
4.15565e-05      2.96364      111.368 
0.000404237      4.52245      108.838 
7.66697e-05      2.25401      121.579 
8.52468e-05      2.35087      111.988 
0.000180507     0.453478      131.445 
8.39849e-06      3.18034      119.795 
6.29102e-05      4.47591      118.860 
7.09015e-05      4.27838      114.286 
1.62111e-05      3.17521      109.120 
8.08142e-06      3.19008      120.099 
7.91548e-06     0.312731      50.1592 
2.30671e-05      1.22161      92.8167 
5.06032e-05     0.671167      79.6952 
0.000273813      1.13685      118.375 
9.44769e-05      1.27974      65.0278 
3.71498e-05      3.14319      108.556 
2.24200e-05      3.21778      120.230 
2.13222e-05      2.95659      111.016 
0.000256513      1.81356      96.9633 
4.02488e-05      2.88106      121.376 
7.89393e-05     0.782708      122.471 
1.42650e-05     0.300155      53.1301 
4.08288e-05      1.20004      90.9674 
3.46290e-05      1.95032      105.464 
6.02482e-05      4.48536      119.078 
0.000214549      1.44176      66.2767 
1.32291e-05      3.13680      108.205 
6.77544e-05      2.32523      111.705 
1.32850e-05      3.11197      107.963 
6.70328e-06      3.25475      120.662 
9.47653e-05      2.92290      106.695 
3.98630e-05     0.288454      56.3513 
0.000206783      3.44806      113.592 
3.70653e-05      1.95582      106.036 
4.76138e-05     0.684575      83.2645 
0.000160298      1.26988      63.8438 
8.53339e-05      2.24347      121.138 
2.39090e-05      3.28252      120.786 
1.25517e-05     0.288454     -123.649 
1.20042e-05      2.34905      105.812 
5.89988e-05      2.26555      98.6293 
0.000126921     0.295127     -118.390 
8.39109e-05      1.18053      89.0166 
0.000112827      4.31361      114.666 
1.76067e-05      3.10601      107.621 
4.49578e-05      4.51292      119.178 
4.29771e-05      2.85387      121.232 
3.82994e-05      1.98655      106.977 
7.05381e-05     0.776571      124.489 
2.09952e-05      1.01006      97.9856 
6.12373e-05      1.11907      118.868 
1.59389e-05      3.13053      107.853 
4.24493e-05      2.28869      99.0547 
1.56023e-05     0.701240      86.7487 
2.46265e-05      3.32037      121.197 
7.77788e-05      2.29894      111.423 
6.80649e-05      1.99256      107.534 
6.52166e-05      4.52246      119.393 
0.000112740      2.28558      98.5531 
5.00503e-06     0.910591      98.8646 
1.98821e-05      2.34361      105.336 
4.08968e-05      3.09993      107.264 
1.38963e-05     0.740159      91.5686 
0.000188368     0.304887     -121.617 
3.09391e-05      3.48266      114.058 
3.78488e-05     0.761182      92.9950 
4.92003e-05     0.278118      59.6991 
5.90619e-05      2.82643      121.107 
4.06901e-05      3.34756      121.321 
2.02656e-05     0.806114      97.1118 
6.45323e-05      2.23306      120.693 
5.31631e-05     0.788220      125.703 
1.90831e-05      1.39677      103.230 
3.67628e-05      4.54092      108.758 
2.21274e-05      4.37678      120.782 
4.29742e-05      3.09398      106.906 
7.28124e-05     0.466621      133.241 
5.86785e-05      1.99852      108.068 
7.85713e-05      4.53444      108.516 
7.81447e-05     0.720656      178.389 
3.04864e-05      1.18103      88.0702 
3.70476e-05      3.99848      109.880 
2.99313e-05     0.783776      95.8798 
5.64837e-05      2.28266      98.0502 
4.21512e-05     0.616492      13.1567 
1.95062e-05      4.32179      114.901 
1.91612e-05      3.47475      113.764 
1.29237e-05      4.53244      119.617 
1.95919e-05      1.27894      63.0290 
3.41749e-06     0.804760      124.861 
6.46172e-06     0.141777     -81.7841 
9.40528e-06      1.40155      104.036 
1.24559e-05      2.79863      120.966 
9.44234e-06     0.816509      126.027 
9.19381e-06      3.03810      106.045 
-1.21355e-05     0.423858      160.667 
-3.02851e-05     0.404795      159.717 
3.06169e-06      2.94478      111.511 
6.07192e-06      3.35774      121.605 
5.99697e-06      4.35732      115.272 
2.97116e-06      3.38562      121.717 
0.000599080      9.93442      13.9785 
-0.000662810      10.0426      46.1292 
-0.000324897      6.85123     -107.326 
-0.000148175      9.59350      138.634 
0.000452307      8.12836     -130.507 
-0.000357561      1.85802     -104.334 
0.000192908      9.95335      13.9514 
0.000398605      9.10694     -77.1844 
-0.000294769      9.43082     -22.7047 
-0.000168204      9.81202     -17.0686 
0.000310721      6.62390      83.4104 
-0.000364986      12.9438      48.0054 
0.000297183      2.96222     -170.287 
9.04244e-05      4.78801      55.3809 
-0.000115655      10.0622     -131.293 
-4.64441e-05      12.5947     -140.801 
-9.03375e-05      9.79337     -17.1021 
-0.000363225      14.4389     -134.832 
-0.000442468      10.0488     -131.206 
0.000214627      9.77963      149.661 
-8.82260e-05      9.55027      138.568 
0.000125627      10.1993      21.0272 
-0.000206604      12.1059     -147.412 
-0.000127147      7.48082     0.919596 
0.000540782      9.75972      3.64119 
0.000162235      5.67972      79.2408 
-8.69807e-05      12.6098     -140.857 
-0.000165163      11.3589      57.8775 
0.000346578      10.6703     -141.926 
-0.000237386      11.0758      46.2435 
0.000125411      11.4103      38.7369 
4.31437e-05      10.6863     -141.993 
-0.000117273      9.74868     -17.0583 
4.22880e-05      6.58490      152.109 
0.000225700      12.4443     -41.2204 
-8.25933e-05      10.6566     -42.7942 
0.000265353      10.6976      17.1804 
0.000194334      12.1509     -128.115 
0.000185061      10.2295      20.8453 
-4.11920e-05      7.96121      25.9226 
-0.000223647      9.44965     -61.7011 
0.000188630      9.79331      143.974 
0.000117248      6.62617      83.2428 
4.01808e-05      7.08543     -173.518 
-3.98000e-05      11.3550      58.1018 
-0.000183094      9.89629     -168.577 
0.000250472      6.67215     -41.7176 
-7.77504e-05      10.6852     -42.8001 
-0.000145323      7.94299      25.9865 
-0.000148621      4.52016     -61.1671 
0.000111688      5.72913      3.19856 
-0.000185216      3.31089      79.9100 
-0.000146189      8.45563     -28.0797 
0.000147943      8.91264      48.5463 
-0.000181324      12.0274      46.8885 
0.000215284      9.76215      149.601 
-0.000146215      5.36832     -52.8738 
-3.87429e-05      8.33886      101.203 
0.000179150      7.55771     -106.135 
0.000214791      9.10247     -77.3088 
-0.000144544      8.77468     -156.065 
-0.000178659      9.35963      158.699 
-3.77127e-05      8.34282      101.339 
0.000140994      8.14153     -130.616 
0.000105379      5.79906     -44.1612 
0.000175724      6.61096      82.8734 
7.25411e-05      9.04726      69.9629 
0.000210875      11.1798     -39.5559 
-6.97717e-05      1.86314     -104.937 
-0.000107569      8.31899      101.230 
0.000106395      5.03666      67.0984 
-0.000105056      10.7001     -42.7264 
-3.65803e-05      7.48052     0.764435 
-7.14348e-05      7.32005     -89.8414 
-0.000104822      12.1229     -147.464 
-0.000104691      8.27376     -134.317 
0.000138773      5.56579      125.346 
-7.12141e-05      9.12303      44.2002 
0.000137892      5.33891      156.606 
-3.55690e-05      6.84387     -107.694 
-0.000109639      12.9572      130.994 
-0.000103585      9.96713     -11.6932 
-0.000101848      8.32295      101.367 
0.000136055      1.21628     -36.3184 
-0.000102394      4.93448      160.094 
0.000102762      11.0867     -30.2182 
-6.81206e-05      9.44951     -22.6573 
-3.46496e-05      11.7543     -39.2693 
6.79603e-05      5.23281      135.000 
3.44163e-05      12.1629     -128.188 
3.42301e-05      5.66814      78.8091 
-3.40621e-05      5.06931      103.927 
3.40113e-05      12.4705     -48.6422 
-3.40171e-05      11.6130     -131.928 
-3.38952e-05      8.64256     -55.9429 
-3.38836e-05      5.70458      14.6212 
6.66500e-05      8.26182      171.928 
-6.65808e-05      9.10768      44.4659 
-3.32125e-05      9.76897     -27.5630 
-7.82298e-05      12.2254      128.558 
3.29122e-05      3.74171     -58.7742 
3.28330e-05      12.4589     -41.1613 
-0.000113294      11.1987      129.347 
-0.000322553      9.79446      42.6838 
-0.000202352      9.26571      43.6875 
-3.72804e-05      11.2324      129.073 
-0.000102741      11.2349      128.930 
-9.41343e-05      8.95966      32.6972 
-0.000103898      11.1157      130.916 
-8.95114e-05      11.2506      128.865 
0.000117410      7.40789      107.113 
-0.000151914      11.0877      130.903 
0.000181174      13.4373      43.9140 
-0.000153013      9.20873      34.3816 
-8.40090e-05      11.6751      132.849 
0.000172069      9.53636      113.876 
-5.58896e-05      8.94873      32.5880 
-0.000102827      9.82441      105.224 
-0.000177466      7.05271      95.5317 
-7.65001e-05      10.4166     -161.877 
5.28777e-05      13.6229     -43.6319 
-5.24878e-05      7.30873      152.456 
-2.65934e-05      8.35412     -55.9288 
-7.69192e-05      10.3204      129.181 
-9.64296e-05      11.2664      128.800 
2.62767e-05      12.5161     -135.325 
0.000196263      8.56328      60.3236 
-2.59685e-05      9.28057      43.4274 
2.57306e-05      7.34383      107.593 
-5.03078e-05      9.33585      131.611 
-0.000175423      9.94532     -31.9321 
-4.95679e-05      8.99386      31.3573 
0.000157537      8.64736     -148.332 
-4.89066e-05      8.38183     -55.8959 
-4.82048e-05      9.80936      42.6036 
-0.000513489      9.75929     -23.9379 
-0.000173039      7.31812      152.316 
0.000214962      13.6369     -43.6935 
2.46347e-05      12.5024     -135.389 
4.78733e-05      1.84632     -129.740 
0.000109576      9.78300      112.476 
-4.67106e-05      11.6619      132.778 
2.43437e-05      10.4692     -40.5060 
-0.000109800      4.20898     -106.286 
-0.000152077      10.3052      129.249 
-2.40777e-05      9.29530      43.3416 
0.000133944      10.7729      151.864 
4.69046e-05      10.0816     -91.0236 
6.49827e-05      10.8870      159.234 
-0.000115989      6.03043     -170.069 
-0.000222049      9.91095      32.0560 
9.86560e-05      10.8832     -22.7001 
-4.52958e-05      6.96624     -82.0811 
0.000101069      10.4977     -40.5182 
-0.000160282      7.36077      90.9346 
-2.28370e-05      9.32290      131.522 
0.000116306      6.70430     -71.0256 
-2.25827e-05      9.01053      31.2927 
-0.000118387      10.4103     -161.983 
-6.31798e-05      12.9705      131.062 
-6.36269e-05      8.37091     -56.0065 
0.000153899      9.68305      59.4604 
-2.21969e-05      10.1632      102.039 
8.34574e-05      10.1022     -91.1364 
-9.57096e-05      9.31092      43.0863 
-4.33459e-05      10.4180     -101.741 
-4.27171e-05      12.3219      128.673 
-7.81234e-05      3.74016     -131.535 
0.000151708      13.4514      43.9761 
-2.17097e-05      9.79566      42.5164 
0.000110056      12.5358     -36.6326 
-5.89650e-05      6.53765     -50.7106 
-2.14795e-05      2.89815     -153.787 
-2.14066e-05      9.77663      133.261 
5.88284e-05      1.85885     -130.202 
2.13586e-05      7.44022      106.880 
-2.10261e-05      8.06143     -139.829 
-2.10435e-05      12.9470      128.162 
4.09232e-05      11.3919      118.410 
0.000129996      10.7991     -35.4261 
-5.82654e-05      9.29430      131.511 
2.08237e-05      12.4880     -135.324 
-0.000214672      7.05470      95.6954 
4.00276e-05      9.66108     -62.3741 
-5.76447e-05      6.94425     -82.2184 
-5.79550e-05      9.01736      31.1158 
0.000115161      8.72479     -12.4417 
-0.000230612      10.4378     -101.718 
0.000123895      14.1577      44.2570 
-7.63776e-05      8.49578     -127.059 
-2.02912e-05      1.95984      8.21077 
-3.87614e-05      9.81005      42.4394 
-3.87759e-05      13.1283      128.877 
3.23897e-05      6.20907     -7.21348 
-1.98773e-05      10.0182      129.410 
-3.80268e-05      8.07692     -139.922 
-1.97885e-05      12.9595      128.233 
-1.96751e-05      2.90682     -153.442 
1.96358e-05      2.91031     -169.301 
0.000118183      10.7908      151.915 
-3.74267e-05      12.3061      128.732 
-0.000105046      6.26672     -60.9827 
-7.02508e-05      13.1410      128.946 
-0.000119634      1.95705      7.62368 
7.25860e-05      11.4016      118.500 
1.91344e-05      6.04161     -46.7464 
-3.66066e-05      6.94920     -23.7583 
-5.21759e-05      7.03330      95.5470 
5.30030e-05      11.1659      121.899 
1.89099e-05      9.70051      59.5212 
5.42110e-05      11.9203     -56.4950 
-8.78672e-05      7.42155      1.23403 
-3.42887e-05      13.0001      128.315 
5.49774e-05      10.1217     -91.1342 
-3.53431e-05      10.1872      102.127 
-1.87300e-05      4.10727      79.6221 
-0.000153390      10.0186     -76.9620 
-3.55029e-05      6.75042      148.570 
6.91631e-05      9.80172      112.430 
1.86903e-05      9.65205     -62.4767 
1.86478e-05      7.32452      107.640 
8.61784e-05      8.31883     -98.8523 
-1.84590e-05      9.81865      133.349 
-3.58545e-05      10.0457      129.426 
1.83079e-05      3.79481     -57.4758 
-3.50821e-05      8.34278     -56.0441 
-3.49160e-05      9.72168      127.814 
5.08644e-05      2.92656     -169.765 
-0.000109530      12.9875      128.245 
1.79476e-05      8.63713     -148.442 
-1.79520e-05      4.22282     -105.945 
-0.000105288      11.0722     -113.417 
-0.000142150      11.5903     -47.1671 
-6.54162e-05      12.1487      41.0631 
3.31770e-05      8.58089      60.3906 
-0.000120471      3.56274      151.135 
1.74608e-05      6.02826     -46.8814 
-3.38166e-05      9.00691      31.0055 
1.72874e-05      7.47318      106.641 
-0.000123532      12.1507      40.9283 
-3.32382e-05      9.82501      42.3596 
-6.09478e-05      9.53181     -45.1722 
-4.99742e-05      12.2939      128.661 
6.49259e-05      6.56616     -129.314 
0.000111191      10.1221     -91.2446 
-7.68698e-05      11.0366      50.3655 
3.27768e-05      11.6929     -59.3534 
0.000298966      10.6582     -114.739 
-1.70403e-05      12.0562      138.429 
0.000105954      11.4287      118.537 
-6.07741e-05      8.49978     -126.868 
-9.94877e-05      10.3918     -161.950 
7.74045e-05      11.9092     -56.5763 
-1.65528e-05      4.09473      79.0237 
0.000129330      6.29762      152.379 
-7.70622e-05      12.5549     -47.3907 
-0.000156529      12.0848      138.421 
-9.10787e-05      9.92164     -27.7531 
-5.93713e-05      9.30948      131.428 
-1.64087e-05      3.06789      70.9712 
-0.000200998      6.92281     -23.6781 
4.69252e-05      8.82007    -0.131613 
3.17154e-05      8.74895     -12.5427 
-1.62408e-05      10.0742      129.442 
-3.13836e-05      7.09119     -86.7667 
1.61949e-05      10.8274     -35.4514 
1.61214e-05      8.51926      76.9736 
-7.46519e-05      12.3755     -54.5387 
-5.79131e-05      9.02428      30.9392 
-3.08350e-05      4.21730     -105.681 
4.65608e-05      13.4654      44.0382 
-4.62164e-05      7.08015      169.422 
1.58267e-05      10.5475     -41.0019 
-5.83720e-05      9.31192      42.9101 
-1.57092e-05      8.32599     -55.9662 
7.20075e-05      10.0977      118.898 
-1.57014e-05      3.73910     -131.966 
0.000108245      8.50291     -98.9303 
1.56165e-05      11.1831      121.844 
-7.28716e-05      10.0411      165.935 
2.98364e-05      13.2940     -131.219 
8.28588e-05      10.8439     -35.3893 
-3.00539e-05      10.2070      102.103 
-1.54676e-05      4.08353      78.4134 
-1.53871e-05      9.03471      31.0494 
-0.000106251      12.2660      128.644 
1.53643e-05      7.49187      106.598 
3.00136e-05      5.56010      36.6596 
4.36094e-05      2.94650     -169.835 
-0.000303547      12.1354      40.9910 
-2.93094e-05      12.7723     -51.6751 
-7.13629e-05      11.9050      129.545 
-4.12480e-05      11.1166      50.8407 
1.50779e-05      10.2080      81.6650 
-2.89956e-05      10.0140     -77.0749 
8.32974e-05      10.2657     -155.483 
-2.99231e-05      13.1533      129.012 
1.50719e-05      6.21165     -7.39888 
-1.49791e-05      5.02544     -159.257 
-4.21240e-05      12.6448     -49.8118 
-2.86670e-05      6.01401     -169.845 
1.48603e-05      11.7202     -59.3219 
-1.48107e-05      9.88767      32.2741 
1.48335e-05      13.4659      43.9163 
-2.91166e-05      9.99426     -77.0489 
2.77654e-05      9.76924      74.1991 
-2.89307e-05      2.89823      159.810 
2.80324e-05      10.8567     -22.6427 
0.000129425      9.24178     -162.624 
-4.22500e-05      4.06766      78.0868 
-8.55474e-05      9.66416      23.5415 
4.18060e-05      8.84040    -0.257759 
-1.46145e-05      12.7882     -51.7314 
0.000331921      13.4800      43.9783 
0.000107421      13.6515     -43.6347 
-1.45056e-05      11.1327     -143.767 
0.000283687      11.6044     -61.9336 
5.57195e-05      14.3405      44.5463 
-4.10127e-05      8.76678     -156.182 
0.000168483      10.1420     -91.1319 
-7.99257e-05      10.2113      102.214 
6.43874e-05      6.55050     -129.427 
9.98640e-05      8.31574     -98.7143 
9.04701e-05      7.15568      141.241 
1.43501e-05      8.99864      117.251 
-1.42881e-05      13.1660      129.081 
-1.43236e-05      9.74146     -23.9844 
-4.09767e-05      6.79179      15.0158 
-2.80542e-05      7.63036      35.3969 
1.42690e-05      6.73006     -70.9186 
9.27956e-05      9.36067      179.509 
-2.77090e-05      9.81137      42.2722 
-0.000159887      11.1285     -143.627 
-7.43371e-05      12.3590     -54.4842 
-7.74521e-05      9.67967      99.7566 
-5.34431e-05      12.5693     -47.4509 
-6.42773e-05      7.07659      169.578 
-1.40389e-05      12.0236      142.978 
6.29849e-05      8.32395     -166.099 
-0.000149959      11.5627     -47.1723 
-2.68036e-05      12.7597     -51.7464 
0.000117238      13.6774     -44.1109 
-0.000195665      14.0888     -136.265 
1.36765e-05      9.11259     -46.9554 
-3.97247e-05      13.1788      129.149 
-0.000131939      9.98974     -77.1622 
1.35896e-05      11.1934      121.929 
-3.96291e-05      8.48809     -126.763 
-8.42299e-05      9.94799     -27.8002 
-5.14267e-05      2.90503      159.449 
-8.57327e-05      9.78774     -57.7721 
-2.60036e-05      12.9755      128.178 
5.16422e-05      4.34980      61.4321 
-4.95589e-05      7.63562      35.1895 
-8.60763e-05      10.0214      165.907 
2.58268e-05      5.84078     -44.3077 
1.32623e-05      9.63476     -62.4231 
-1.32519e-05      4.07189      77.8079 
5.04093e-05      11.4555      118.580 
-1.31927e-05      12.0398      143.036 
-1.31502e-05      8.19780     -75.5885 
-1.31566e-05      2.34804      20.4446 
-3.11234e-05      12.9378      129.101 
0.000106501      14.3548      44.6040 
1.30158e-05      4.99114      63.3348 
-1.29916e-05      11.9179      129.620 
1.29912e-05      12.5520     -36.5774 
0.000169005      10.0709     -66.8468 
-1.29225e-05      11.0491      50.2876 
2.48259e-05      8.39200      75.9290 
4.89245e-05      5.93150      82.4470 
-3.60827e-05      9.79639      42.3519 
-3.48237e-05      8.21743     -75.6237 
-4.47479e-05      11.0455     -113.362 
2.48809e-05      8.82014    -0.258351 
1.27210e-05      10.8720      155.083 
-4.68526e-05      9.28089      131.417 
-3.65756e-05      4.05644      77.4677 
-2.46883e-05      9.32622      42.8285 
-2.39780e-05      11.1294      50.7598 
9.15135e-05      9.17589     -176.624 
-3.98077e-05      12.9255      129.034 
-1.24153e-05      12.7472     -51.8180 
-9.09235e-05      10.4610     -101.805 
-4.65965e-05      9.01426      30.8329 
-2.42316e-05      7.82210      55.4150 
-6.89797e-05      10.8782      33.2242 
-0.000212524      12.8970      129.021 
0.000250861      12.0436      148.236 
0.000141337      11.9261     -56.6299 
7.07629e-05      4.33202      61.3040 
-2.43707e-05      8.50433     -126.681 
-6.91318e-05      12.1000      138.484 
0.000133025      10.2841     -155.529 
1.22359e-05      3.76747     -57.5761 
-0.000180769      10.3725     -161.915 
-0.000123906      10.2345      102.298 
1.22314e-05      6.30704      152.215 
-1.21838e-05      12.0509     -50.6576 
-2.40521e-05      12.7511     -51.9431 
-4.51450e-05      5.03476      104.254 
-2.38286e-05      12.9630      128.107 
-9.11363e-05      7.18177      69.7985 
4.68710e-05      13.6629     -44.1700 
-5.53056e-05      6.19933     -27.4707 
-4.47403e-05      3.57256      150.851 
4.44447e-05      6.23265     -5.89455 
-3.41436e-05      12.5561     -47.5165 
-2.37360e-05      12.3873     -54.4623 
-1.19717e-05      11.9458      129.635 
8.85087e-05      8.68176     -12.3725 
-2.32924e-05      6.27657     -60.8210 
2.28546e-05      9.10371      155.744 
-1.18424e-05      10.1702      71.4220 
-1.18380e-05      3.69876      68.4317 
-8.31768e-05      11.0341      50.2229 
8.57988e-05      9.51306     -146.577 
-1.17307e-05      12.6173     -49.8223 
-2.31508e-05      8.49225     -126.571 
-1.16511e-05      12.0682      143.017 
1.16545e-05      5.82684     -44.4417 
-2.28492e-05      2.34104      19.9800 
-8.48977e-05      10.0015     -157.795 
3.08043e-05      9.78325      74.3456 
1.15722e-05      10.1618     -91.0155 
-3.23107e-05      9.32735      42.6526 
2.25297e-05      11.4835      45.2806 
4.07047e-05      11.3065     -154.204 
-1.16161e-05      12.7386     -52.0149 
-0.000165534      3.71052      68.8269 
-0.000192739      13.4643      135.601 
-8.34289e-05      9.45845      57.0815 
-1.14264e-05      9.67626      99.6384 
-1.14400e-05      12.7261     -52.0868 
-3.29683e-05      4.04170      77.1377 
-1.14135e-05      12.0234     -50.6706 
6.51200e-05      10.1615     -90.9013 
-0.000226592      12.7389      137.418 
-1.13405e-05      12.3991     -54.3861 
1.13172e-05      10.7393      56.5487 
1.13069e-05      11.7692     -120.312 
2.13979e-05      7.12825      141.265 
1.12772e-05      9.62539     -62.5300 
-1.12650e-05      12.7172     -52.2822 
2.20937e-05      11.7239     -148.532 
3.24897e-05      11.4652      118.669 
-4.27696e-05      9.34143     -90.9804 
-2.15093e-05      11.0536     -113.459 
6.36838e-05      4.26027      61.3855 
-1.12015e-05      4.91160     -12.2250 
1.11641e-05      10.9012     -22.6605 
-0.000103374      12.2375      128.630 
-2.18454e-05      7.85028      55.3772 
-4.33204e-05      12.4104     -54.3129 
-1.11182e-05      9.65702      99.6577 
-1.11130e-05      12.6893     -52.3006 
-1.11170e-05      13.2040      129.283 
-1.11113e-05      8.58458     -126.283 
-1.11247e-05      7.36047      90.7769 
-8.73890e-05      10.1823      71.5651 
7.16276e-05      11.7795     -120.397 
-1.09959e-05      12.6774     -52.3704 
-3.17543e-05      9.44746      57.1847 
-0.000120212      11.5490     -47.2460 
-3.14971e-05      7.78668     -23.1406 
-4.24438e-05      9.99756      165.992 
2.14147e-05      2.81392     -165.167 
-3.17282e-05      12.9509      128.039 
3.19645e-05      10.7285      56.6356 
2.04094e-05      4.35953      61.1983 
-0.000204146      12.6929     -52.4242 
3.13581e-05      8.50607     -99.0651 
5.25230e-05      10.5787      112.685 
-2.12916e-05      8.48063     -126.465 
-2.14211e-05      12.7048     -52.3544 
-6.06819e-05      9.65365      99.5392 
-3.84166e-05      10.8951      33.1658 
-3.07574e-05      4.88754     -12.0431 
-4.07298e-05      6.94974      8.10648 
5.00404e-05      9.46171      122.044 
4.99884e-05      8.29955     -98.8730 
1.06182e-05      9.22244     -162.587 
-0.000146254      7.18879      69.6470 
6.94684e-05      4.34178      61.0695 
-0.000190186      9.08377     -113.350 
1.05887e-05      8.37712      75.7658 
-7.81783e-05      13.0311      40.8296 
-2.95599e-05      9.43986      30.4217 
-1.05649e-05      7.10007      169.453 
1.05285e-05      11.8303     -59.1858 
-3.02772e-05      9.98542     -77.2713 
1.04313e-05      11.4972      45.2115 
-2.02972e-05      6.30414     -60.7500 
4.95271e-05      14.3690      44.6615 
-3.04874e-05      12.4223     -54.2370 
-2.99404e-05      12.0106     -50.7454 
-5.83299e-05      5.01107      104.092 
3.94623e-05      9.22284     -67.1589 
-2.01758e-05      8.98649      30.7882 
1.03411e-05      11.0508      141.761 
0.000105255      13.6910     -44.1695 
-3.96515e-05      11.5844      143.564 
0.000135278      10.1807     -90.7897 
-1.96774e-05      11.1122     -143.565 
8.63780e-05      10.0975     -66.7863 
1.02226e-05      13.7510     -138.008 
-6.74809e-05      7.46060      159.770 
-2.02383e-05      7.50334      88.3209 
1.01989e-05      11.4923      118.705 
3.92689e-05      9.38018      179.510 
1.01676e-05      4.29258      52.3789 
1.97816e-05      8.35749      75.7317 
-4.89783e-05      7.01251     -22.4652 
-1.98141e-05      7.83362      55.2930 
2.83766e-05      10.7153      152.909 
-1.01145e-05      10.2304      102.191 
-6.69132e-05      7.35153     -95.3061 
1.01318e-05      9.66625      59.4016 
1.00748e-05      9.12219      155.796 
-1.00823e-05      12.4858     -53.9924 
-8.44926e-05      10.4569     -101.696 
2.91011e-05      11.4977      45.0714 
-1.98263e-05      9.99830      14.9530 
-9.98878e-06      9.26799      131.327 
9.98250e-06      8.65764     -12.2703 
9.98662e-06      10.7337      56.7832 
-2.95478e-05      12.2065      51.2538 
-4.69358e-05      12.9384      127.969 
9.97335e-06      5.95158      82.4727 
5.63398e-05      6.30782     -135.000 
1.93653e-05      11.5021      118.794 
9.93178e-06      10.1344      119.046 
8.38110e-05      10.6045      112.746 
1.95149e-05      10.9277     -22.7176 
-9.92264e-06      12.5424     -47.5847 
-4.69578e-05      9.97791      165.964 
1.92733e-05      2.83279     -165.268 
-0.000146459      14.1029     -136.205 
-6.54166e-05      10.2586      102.384 
8.25752e-05      11.3342      64.3850 
-3.77599e-05      9.34180     -91.1046 
9.80251e-06      10.6890      152.955 
6.54277e-05      10.3019     -155.574 
-8.26094e-05      11.5401     -134.860 
-3.82635e-05      13.1210      48.5844 
1.92271e-05      9.50797     -146.410 
9.71875e-06      8.63857     -12.2978 
1.92016e-05      9.22853     -162.467 
-3.78596e-05      12.5484     -53.7510 
7.37455e-05      10.4262     -77.0320 
-2.83779e-05      11.3994      58.1209 
6.41764e-05      4.28024      52.5937 
3.71724e-05      11.8848     -59.1194 
-6.38195e-05      9.96121     -77.3593 
7.36254e-05      10.1012      90.7960 
-1.84975e-05      7.09652      169.607 
-1.85879e-05      6.89612     -23.5915 
-9.12675e-05      6.12841      137.248 
-6.48267e-05      12.2217      51.3111 
4.63549e-05      6.96752     -48.0252 
-9.52713e-06      3.31491      81.6700 
9.50269e-06      5.78480     -44.5796 
1.86405e-05      6.91139     -3.31751 
9.49446e-06      8.63093     -170.800 
-2.78737e-05      10.0129      14.8152 
-3.69205e-05      9.44208      57.0172 
-9.47939e-06      8.13794     -50.2824 
-1.86097e-05      6.94691      7.94105 
9.43771e-06      8.61448     -12.1948 
8.12729e-05      10.2111      109.928 
3.67210e-05      9.91726      48.4323 
-4.57923e-05      3.72219      69.2304 
1.85728e-05      9.25301     -18.3938 
9.34811e-06      8.48991     -99.2159 
-9.32308e-06      12.4806      37.5127 
1.84756e-05      9.21355      59.7637 
5.45927e-05      9.40063      179.392 
-4.54874e-05      8.15042     -50.1769 
5.38750e-05      10.1015      90.9066 
1.82613e-05      11.0419     -30.2365 
-1.83776e-05      11.5403      143.527 
-3.63368e-05      3.30090      80.9360 
2.72018e-05      8.36250      75.5972 
9.26764e-06      10.9202      39.0539 
-9.26379e-06      9.03923     -113.332 
9.25759e-06      4.26965      61.1557 
-9.21299e-06      8.77580      56.9975 
-9.21658e-06      8.21242     -75.7606 
-5.39670e-05      12.1334      41.1259 
5.39014e-05      10.1810     -90.8995 
-4.47939e-05      13.1233      48.7068 
-3.59382e-05      9.65043      99.4250 
3.59491e-05      9.20992     -162.430 
1.82445e-05      8.65093     -170.821 
-1.80948e-05      6.99379     -22.5286 
6.25282e-05      12.0543      148.154 
-1.81207e-05      11.7040     -142.777 
9.14441e-06      8.30429     -166.065 
-1.78825e-05      11.8181      150.049 
-9.09501e-06      12.3708     -54.4078 
9.13508e-06      10.2010     -90.7882 
5.37211e-05      12.8892      46.6961 
9.09993e-06      9.27793     -18.4745 
-9.09356e-06      8.58897     -126.094 
9.09658e-06      4.88790      126.680 
9.07360e-06      5.76508     -5.37740 
1.79997e-05      12.5327      49.8549 
9.06366e-06      8.57149     -12.1235 
-9.05183e-06      12.5604     -53.6764 
1.78420e-05      3.28375     -163.006 
-4.45420e-05      10.6917     -58.5411 
-2.67221e-05      10.0824      105.413 
2.68214e-05      9.29715     -18.4349 
2.67178e-05      9.70730      69.6249 
-5.33298e-05      12.7208     -52.4102 
8.95074e-06      11.4977      44.9286 
-8.95344e-06      8.60474     -126.017 
1.77901e-05      5.78525     -5.35860 
1.77411e-05      6.29351     -134.870 
8.96549e-06      6.99613     -48.0128 
-1.78332e-05      7.20779      69.7030 
8.91557e-06      9.24126      59.7184 
-2.65359e-05      12.6123     -53.5112 
8.90760e-06      13.2566     -130.901 
1.77215e-05      10.0225      84.7333 
-8.88638e-06      4.99142      104.149 
1.76428e-05      11.9126     -59.0858 
1.76578e-05      13.6765     -44.2286 
-1.76330e-05      12.2332      134.404 
8.87155e-06      10.9045      39.1210 
-1.76642e-05      7.58220      173.944 
-8.85351e-06      6.19036     -27.3105 
8.85171e-06      9.42089      179.393 
8.82716e-06      10.8904      45.8933 
-8.82699e-06      6.96624      7.91888 
-8.82936e-06      4.86772     -12.0929 
1.76153e-05      7.00920     -47.8942 
8.81092e-06      8.54744     -12.0192 
8.82916e-06      6.30735     -134.745 
8.81922e-06      9.34129     -18.4757 
-8.84111e-06      11.9594     -42.7624 
8.82931e-06      10.6480     -114.880 
-8.77327e-06      10.2826      102.466 
-8.79186e-06      12.4775      37.6411 
-8.77967e-06      11.4060      58.2611 
! Tentative model.
! Flux (Jy) Radius (mas)  Theta (deg)  Major FWHM (mas)  Axial ratio   Phi (deg) T \
! Freq (Hz)     SpecIndex
1.15305e-05      10.0704      118.856 
