! Center RA: 12 21 31.69052,  Dec: +28 13 58.50011 (2000.0)
! Established model.
! Flux (Jy) Radius (mas)  Theta (deg)  Major FWHM (mas)  Axial ratio   Phi (deg) T \
! Freq (Hz)     SpecIndex
  0.158443      0.00000      0.00000 
0.00767451    0.0202604      180.000 
0.00528134    0.0286526     -135.000 
0.00503811    0.0202604      90.0000 
0.00122532    0.0446338     -116.996 
 0.0104228    0.0562440     -135.000 
0.00378027    0.0397705      90.0000 
 0.0111807    0.0446338      63.0042 
 0.0569130    0.0720098     -123.524 
0.00957985    0.0600310      90.0000 
 0.0508956    0.0633577      71.3505 
0.00764831    0.0848966     -135.000 
 0.0145798    0.0896014     -116.350 
 0.0170019    0.0802914      90.0000 
0.00881774    0.0828082     -104.162 
0.00241333     0.247514      104.036 
0.00392140     0.271765      107.184 
0.000395413     0.266484      103.019 
0.00345653    0.0828082      104.162 
0.00116293     0.227911      105.272 
0.000264710     0.209153      106.680 
0.000129336    0.0446338      116.996 
0.00116357     0.253192      108.489 
0.00116747     0.107434      111.727 
0.00137507     0.291183      106.006 
0.00111613    0.0633577     -108.650 
0.000556961     0.126477      108.327 
0.00179491     0.178866      116.673 
0.000980653     0.286260      102.105 
0.000726667     0.152624      113.162 
0.000656555    0.0446338     -63.0042 
0.000231471     0.134233      116.565 
0.000733191    0.0600310     -90.0000 
0.00167512     0.306099      101.310 
0.000146659    0.0446338     -26.9958 
0.000413539     0.161670      119.778 
0.000270324    0.0397705      0.00000 
0.00180705     0.310708      104.976 
0.000757352    0.0600310      0.00000 
0.00120906     0.329594      104.100 
0.000845414     0.188432      121.981 
0.000104165     0.349279      103.290 
5.13094e-05    0.0828082     -14.1622 
0.000247199     0.437032      105.945 
0.000573191    0.0802914      0.00000 
0.000506389     0.205897      118.994 
0.000365753     0.455823      105.272 
0.000439622     0.101837     -11.4755 
0.000329949     0.480914      106.965 
0.000462570     0.101837     -101.476 
0.000234918     0.475398      104.628 
0.000868400     0.121759     -9.57842 
0.000361478     0.815792      107.118 
0.00103687     0.216445      123.690 
0.000670788     0.500328      106.288 
0.000215259     0.948461      108.449 
0.00168712     0.107434     -111.727 
0.000326770     0.967701      108.070 
6.74048e-05     0.791300      106.132 
0.000254593     0.797167      107.531 
6.36722e-05     0.145849     -15.8239 
0.000213191     0.986983      107.705 
0.000517529     0.164706     -13.9729 
0.000148321     0.771858      106.550 
0.000142321      1.02868      103.499 
0.000117620     0.495028      104.036 
0.000190324      1.04767      103.250 
0.000605172     0.708758      106.420 
0.000294645     0.942245      107.281 
3.31356e-05     0.664933      105.714 
3.28897e-05     0.601667      105.406 
9.56912e-05     0.577108      104.072 
6.30560e-05     0.955909      105.760 
0.000550226     0.728215      105.970 
0.000237345     0.558204      104.559 
0.000201751    0.0633577      18.6495 
3.08485e-05     0.961610      106.922 
3.02688e-05     0.989328      104.047 
0.000357412     0.100252     -126.784 
5.89560e-05      1.00899      103.768 
0.000289101     0.753177      106.973 
0.000606494     0.533698      103.001 
8.16769e-05     0.929974      108.830 
0.000152302     0.954815      109.560 
0.000270212    0.0998015      0.00000 
0.000379166      1.07195      104.017 
7.19122e-05     0.936453      109.960 
0.000341107     0.961787      110.697 
0.000772731     0.513977      103.509 
0.000677649     0.747714      105.543 
0.000162230     0.141777     -8.21587 
0.000314294      1.09662      104.787 
3.81552e-05     0.969133      111.818 
0.000321376     0.995250      112.427 
0.000381120     0.325253      100.636 
0.000219346     0.184432     -12.4530 
0.000252456      1.11549      104.532 
0.000304261     0.228306      127.925 
0.000260602      1.02987      114.081 
0.000214499     0.209153     -16.6796 
2.68637e-05     0.493986      111.381 
0.000191885      1.14028      105.262 
6.19471e-05     0.501727      113.536 
0.000166358      4.63046      109.689 
0.000402732     0.227911     -15.2717 
4.81553e-05      1.03798      115.064 
6.96752e-05     0.871317      99.2676 
0.000241580      2.27098      107.956 
0.000394913      2.64023      105.834 
3.43277e-05      1.06428      115.608 
4.44019e-05     0.536933      116.565 
0.000105216      1.07320      116.583 
0.000150400     0.240790      131.589 
0.000158390     0.868284      97.9480 
0.000421382      4.63733      109.924 
9.13775e-05     0.322129      97.0919 
0.000202497      1.16504      105.925 
4.05299e-05     0.545937      118.397 
7.37156e-05     0.529508      100.864 
1.95127e-05      1.10008      117.019 
0.000135769     0.742542      104.036 
1.90476e-05     0.582967      120.989 
0.000107543      1.10943      117.952 
0.000103897     0.300838      93.8616 
5.05517e-05     0.593248      122.605 
0.000325816      1.18945      106.606 
5.23739e-05      2.27730      108.441 
0.000106730      4.28904      109.617 
9.76504e-05     0.254690      135.000 
0.000214967     0.888355      97.7673 
1.71253e-05     0.643885      126.135 
6.65708e-05      3.96034      113.199 
0.000253376     0.247514     -14.0362 
7.86613e-05     0.506166      99.1272 
8.32862e-06     0.696607      129.142 
0.000288811      2.25171      108.115 
6.30826e-05      1.14625      119.233 
0.000111717     0.172194      125.422 
1.63500e-05     0.750414      131.757 
8.13857e-06      1.21473      107.248 
9.76815e-05      1.37920      106.857 
3.03787e-05      3.95240      112.929 
2.36066e-05     0.792690      132.967 
0.000121453      3.92616      112.782 
0.000199728     0.300155      90.0000 
7.79612e-06     0.806114      133.982 
8.97264e-05      3.50638      110.704 
0.000227578     0.865715      96.6199 
7.59355e-06     0.834763      134.017 
7.49431e-06     0.876557      135.000 
0.000155663      4.28228      109.362 
1.46979e-05     0.919648      135.893 
0.000146020      1.18335      120.484 
3.49593e-05     0.269397      138.048 
0.000261362      1.83652      128.364 
4.85592e-05      3.49953      110.405 
6.83024e-05      3.37532      114.132 
0.000169420     0.947759      135.834 
4.71092e-05     0.503350      96.8496 
1.39561e-05     0.161670     -60.2221 
8.11269e-05     0.604406      124.223 
0.000189431      1.39860      106.617 
0.000142009      2.61525      105.528 
3.84824e-05     0.226037     -45.0000 
0.000173570      3.40950      114.608 
0.000140687      3.61821      109.040 
2.52147e-05     0.284207      140.679 
1.86444e-05     0.128090     -141.183 
7.82924e-05      4.64401      110.151 
5.65139e-05     0.501338      94.5500 
0.000119325      3.99902      115.151 
0.000138207     0.266484     -13.0188 
6.19068e-05     0.300155      143.130 
0.000101954      3.47350      110.208 
6.91497e-05     0.240790     -41.5891 
7.29951e-05     0.962396      136.674 
8.07431e-05      4.31494      109.781 
2.20850e-05      1.43380      98.0326 
4.48620e-05     0.134233     -153.435 
5.78119e-05      4.65103      110.385 
4.68564e-05     0.616029      125.781 
8.70225e-05      1.19336      121.291 
6.19188e-05      1.41448      98.1430 
6.81833e-05      3.64304      109.230 
2.50018e-05      3.97038      112.819 
4.23662e-05     0.500168      92.3215 
4.12622e-05     0.576909      123.649 
5.55326e-05      4.65813      110.619 
4.14350e-05      2.64562      106.240 
5.03183e-05      2.25809      108.604 
3.66293e-05      3.45323      115.373 
3.19991e-05     0.282706      81.9129 
2.26900e-05     0.784114      109.337 
2.25393e-05      3.96285      112.559 
2.24166e-05     0.284207     -39.3213 
3.12642e-05     0.286260     -12.1052 
4.42630e-06      1.27132      109.301 
4.39449e-06      3.36709      113.817 
4.36878e-06      4.30813      109.527 
0.000311794      12.4372     -143.830 
0.000385084      9.28606      141.822 
0.000339993      4.01388      97.4439 
-0.000205290      11.0115      123.143 
-0.000247711      8.84355     -162.632 
-0.000383422      10.7774      71.4969 
-0.000145739      10.8077     -113.908 
0.000331430      5.81379     -55.6556 
0.000186258      7.01478     -35.3681 
-0.000163270      11.0222      123.228 
0.000230916      12.0286     -39.0600 
-0.000162116      5.67066      73.6130 
0.000108553      7.68920      34.7245 
2.82925e-05      5.98148     -141.786 
-0.000201460      2.89977      80.4670 
0.000148986      5.99741     -141.906 
-0.000214305      5.10308     -24.0549 
0.000260847      1.87228      113.277 
0.000126010      5.27239     -148.176 
0.000146009      12.4209     -143.775 
-0.000127375      10.8173     -113.768 
-0.000125048      10.1762     -158.678 
0.000148190      9.40565      17.7006 
-7.77301e-05      10.8556      35.4764 
-0.000101794      9.64535      163.745 
5.26472e-05      7.08675     -35.3494 
-0.000148259      9.48044     -161.298 
-7.08491e-05      9.96331     -122.956 
0.000141920      11.3866      116.160 
-0.000187482      8.41151     -23.3952 
-9.67668e-05      9.97434     -123.054 
0.000116712      11.8952     -59.0356 
-9.35254e-05      7.88137      131.089 
7.35675e-05      10.7304     -110.967 
-0.000204771      10.2838     -118.708 
2.50853e-05      5.85238     -55.4419 
0.000181267      7.71107      34.4293 
0.000113337      9.88115      102.152 
-0.000156491      4.08944      93.9246 
-9.27823e-05      3.68292      171.257 
-9.18228e-05      10.1698      2.47817 
4.76264e-05      6.30862      84.5396 
-0.000131498      8.86218     -162.670 
-8.93912e-05      10.8715      35.4168 
-0.000111416      1.43162     -151.648 
-6.64670e-05      5.67641      73.4168 
2.35389e-05      10.8322     -154.049 
-4.58197e-05      6.63840     -12.5281 
-6.71650e-05      9.70988     -60.3721 
0.000109327      7.84656     -87.6652 
-0.000130354      10.1486     -60.3529 
0.000130305      10.7494     -110.929 
4.48564e-05      6.57035      35.3346 
-0.000108063      10.8095     -113.673 
-6.53877e-05      9.81168     -32.0054 
-4.48836e-05      12.9855      47.9348 
8.70336e-05      9.24944     -48.2425 
-4.38181e-05      5.94219      75.7742 
0.000106710      6.31050      84.3633 
6.95838e-05      6.14694     -159.027 
-0.000109720      10.4401     -133.602 
6.43556e-05      9.23270     -9.72797 
-0.000106687      9.13019     -61.1873 
4.29836e-05      8.44818     -140.091 
-8.53468e-05      9.46196     -161.260 
2.21108e-05      9.33044      141.878 
-6.35268e-05      8.99583     -128.501 
6.32496e-05      10.8505     -154.096 
-4.30813e-05      7.11718      145.998 
-4.31163e-05      10.4846     -143.612 
4.22231e-05      11.3374      48.7192 
-2.16832e-05      9.86013     -147.759 
-4.16182e-05      10.1951     -158.719 
-6.27500e-05      13.0000      47.9924 
2.13773e-05      7.11439     -35.3916 
-4.14953e-05      13.7124     -131.690 
4.15611e-05      13.0633      137.295 
2.11667e-05      6.60168     -101.002 
-4.16285e-05      6.44151      80.8910 
4.15894e-05      10.3076      173.424 
-4.15253e-05      10.4261     -133.521 
-2.10169e-05      2.90306      80.0872 
-2.09318e-05      9.66481      163.778 
2.08207e-05      6.11536     -105.946 
2.07105e-05      6.58688      35.2326 
2.06773e-05      6.60558     -101.175 
2.06223e-05      9.38635      17.7382 
-4.06826e-05      10.4683     -143.547 
-4.06464e-05      14.1183     -136.492 
-2.05575e-05      9.88367     -147.984 
-2.05118e-05      8.39653     -59.0362 
-2.04575e-05      9.83596     -94.8972 
-2.03764e-05      7.10039      145.907 
2.03185e-05      7.48434     -160.161 
-2.02965e-05      7.70588      164.340 
2.02662e-05      11.1271      41.1365 
2.02352e-05      4.85754     -162.013 
2.01491e-05      10.7859     -142.002 
0.000268722      9.49603      65.4845 
5.56790e-05      8.19409     -104.852 
2.64431e-05      8.19911     -104.984 
0.000182051      1.03728      70.8704 
0.000248904      8.17954     -105.020 
-0.000272291      4.63843     -77.0429 
-0.000184283      10.9820     -65.5820 
6.91036e-05      6.50012      163.743 
0.000287862      9.20474     -47.9937 
-8.38756e-05      13.9398     -132.847 
-0.000178406      6.91558      148.240 
0.000155608      11.3518     -115.572 
0.000148770      8.59552      63.0189 
8.01574e-05      6.52454      163.620 
0.000210468      11.0347     -118.470 
0.000191371      12.7878     -126.799 
7.81982e-05      8.08687      39.2801 
0.000156115      8.63628     -77.1531 
-0.000189883      10.7898      40.8658 
-4.00767e-05      10.4610      24.7525 
-0.000175967      10.9388      56.4854 
-3.90201e-05      10.2116      104.634 
-7.00576e-05      8.57943     -154.751 
-7.24784e-05      5.89186      102.146 
1.94684e-05      8.50003      45.4757 
5.54981e-05      6.12148     -159.139 
8.83387e-05      6.77089      176.785 
-1.93162e-05      3.60551     -160.562 
-0.000110624      8.08145     -125.736 
3.73402e-05      10.0609     -141.377 
-9.50966e-05      11.4336     -30.0196 
3.60768e-05      9.64582     -44.1584 
-8.20306e-05      10.4525      24.6516 
1.86631e-05      8.10924     -79.7715 
-4.84662e-05      13.9265     -132.788 
-8.07097e-05      8.82118      105.518 
6.56524e-05      7.91506      16.7393 
6.91559e-05      9.50381     -45.3423 
1.84025e-05      12.4789      144.985 
-9.84212e-05      3.58641     -160.454 
1.81284e-05      9.50610      65.6463 
0.000122299      8.10567     -79.9124 
-0.000121646      11.0142     -29.3575 
-0.000164236      13.9249     -132.904 
0.000135064      6.23982     -105.241 
8.07269e-05      6.50582      163.572 
1.77901e-05      10.0686      21.9291 
-9.80247e-05      6.81665      60.2770 
9.24743e-05      8.07178      39.3677 
-0.000206610      10.1871      104.556 
-5.03911e-05      10.3657     -161.671 
3.01384e-05      8.49932      45.2862 
-7.95490e-05      6.92220      148.471 
1.73592e-05      10.0762     -141.446 
3.35388e-05      12.0883      37.2682 
1.70069e-05      12.4623      144.932 
7.42286e-05      11.2005      134.856 
-6.21826e-05      2.69997     0.429949 
1.68399e-05      6.10982     -158.894 
5.31979e-05      3.78542     -24.6752 
8.98224e-05      10.0798      21.7792 
1.66208e-05      11.3431     -115.480 
-0.000179763      10.9903     -65.4858 
3.26455e-05      12.5248      131.505 
-1.64721e-05      5.10298      165.471 
-1.64644e-05      11.5754     -29.0441 
1.64038e-05      7.95421      56.0686 
3.18277e-05      10.0736     -141.287 
-3.18644e-05      3.75535      5.19339 
-8.52004e-05      1.44706     -101.153 
-3.05604e-05      9.87559     -175.122 
8.77869e-05      11.3342     -115.615 
8.81394e-05      9.19119     -48.0875 
0.000188691      9.02586      80.4335 
-1.59331e-05      11.6029     -29.0830 
4.53251e-05      6.12873     -158.962 
-6.04030e-05      9.96453      76.7748 
-8.08782e-05      8.85605      117.431 
4.20251e-05      11.2586     -49.1783 
-7.00160e-05      9.14808      122.682 
-7.71515e-05      8.85140      105.731 
7.77267e-05      7.97102      56.1499 
0.000110490      12.5114      131.435 
1.54820e-05      8.51358      45.1893 
1.54797e-05      12.0541      37.9914 
-0.000162596      11.6206     -29.0345 
0.000232536      10.5958      107.240 
-2.92474e-05      3.03087      163.117 
4.27249e-05      6.76982      176.950 
1.51635e-05      1.03212      68.4152 
-2.71999e-05      10.4530      168.409 
-8.08722e-05      3.71765      5.55985 
9.25018e-05      11.3004     -49.0900 
5.28954e-05      11.1155     -132.157 
-1.48458e-05      1.61295     -107.322 
4.26581e-05      12.0666      38.0672 
8.99542e-05      9.31814     -137.957 
1.47611e-05      12.4457      144.878 
3.63010e-05      9.96241     -69.3086 
2.83009e-05      6.27118     -82.6717 
-2.69153e-05      10.3849     -161.706 
6.50283e-05      5.99750      94.3987 
-2.75400e-05      6.50020     -67.3781 
4.12838e-05      10.0788      138.942 
6.55200e-05      9.48958     -45.4293 
-8.15950e-05      8.29138     -108.128 
3.90041e-05      6.24389      160.343 
2.84280e-05      12.8000     -126.871 
-0.000177177      4.06744     -93.3845 
2.72822e-05      7.44059      66.0510 
-2.81593e-05      11.3702      30.6693 
4.20378e-05      8.65139      85.0940 
3.86426e-05      11.2822      151.981 
-3.85747e-05      5.92454      102.672 
0.000209052      12.8878     -51.7408 
0.000111060      9.96959     -69.1997 
7.85291e-05      6.48639      163.521 
3.99181e-05      1.40425      125.737 
-0.000122051      3.03989     0.381872 
-0.000102194      10.9281      56.5707 
1.40338e-05      8.02663      10.1879 
-1.39889e-05      2.51368     -164.308 
0.000110826      12.8599     -51.7579 
-1.39433e-05      10.4569      168.304 
6.69858e-05      12.8549      44.9361 
-0.000125101      10.1886      117.469 
0.000207846      9.64573      161.000 
-5.02490e-05      3.62803     -101.126 
4.75935e-05      8.01525     -17.1236 
-2.55671e-05      3.91425      168.802 
7.22389e-05      11.0440     -118.559 
1.35014e-05      5.45375      15.3097 
3.62664e-05      3.49251      129.892 
-2.58016e-05      9.18820      57.6221 
-4.88974e-05      11.1914      43.3346 
-7.28178e-05      10.8051      40.7955 
-3.71889e-05      3.50635     -152.854 
2.53043e-05      2.04263      18.2619 
-2.53904e-05      10.1241     -60.1419 
4.89475e-05      12.0632      38.2023 
8.14299e-05      8.66993      85.2339 
2.58744e-05      8.00669      10.2136 
1.31078e-05      7.75652      27.8195 
-1.30354e-05      3.00563      163.375 
-2.42669e-05      11.3534      30.7196 
0.000121132      9.06097     0.759217 
-5.46552e-05      6.95951      173.897 
1.29516e-05      7.52419     -100.411 
0.000142074      11.2919     -155.070 
-3.55045e-05      3.56803     -160.349 
-6.14298e-05      10.3440     -170.429 
-4.66764e-05      13.5623      45.1793 
-1.28572e-05      4.24216      24.5069 
-1.27979e-05      6.85221      147.518 
-5.75980e-05      5.67195      45.9970 
8.27431e-05      10.3457     -139.784 
4.68841e-05      4.59465      119.466 
-2.45499e-05      1.67542     -113.212 
-2.48598e-05      6.14784     -18.2005 
4.77154e-05      11.3159     -115.659 
0.000161355      6.93195     -166.484 
4.71558e-05      11.2320     -122.050 
-1.26887e-05      9.94926     -147.812 
2.48839e-05      5.44844      15.1042 
7.48881e-05      10.0635      138.867 
3.42775e-05      8.82007     -179.868 
0.000131156      10.1093      21.5890 
2.46279e-05      8.44720     -177.694 
-1.25308e-05      13.1224      42.4670 
2.30470e-05      3.34181     -11.0425 
4.61446e-05      8.22572      97.2638 
1.24330e-05      11.1320      136.092 
-0.000121090      13.9117     -132.845 
3.42109e-05      6.78931      176.959 
0.000107614      11.3066      47.0789 
-0.000106020      9.03053     -145.923 
3.08639e-05      11.3247     -115.752 
-3.54929e-05      6.83512      147.427 
-1.22219e-05      11.5853      128.552 
-6.65583e-05      9.96007     -147.713 
-3.30064e-05      8.47211     -142.482 
-3.47823e-05      13.1243      42.3444 
9.57054e-05      7.88896     -87.2413 
1.20628e-05      8.46208      149.615 
1.20514e-05      8.35362     -93.2957 
-1.20193e-05      2.51924     -163.865 
2.32426e-05      6.70922     -130.528 
0.000110442      8.02320      10.0508 
9.40597e-05      11.1601      136.087 
3.32413e-05      10.9340      111.685 
-2.28568e-05      10.1737     -66.3580 
-4.77859e-05      10.4692     -167.982 
-0.000144444      10.3640     -170.448 
-1.17246e-05      6.91791      174.023 
-0.000164770      6.70663      55.6965 
-4.29804e-05      11.3891     -30.0314 
4.30892e-05      9.73318      4.71412 
4.24659e-05      1.39251      125.060 
1.16567e-05      7.76538      27.6224 
4.48500e-05      6.46697      163.470 
5.10753e-05      12.4985      131.368 
-2.21186e-05      4.22373      24.6209 
8.49709e-05      8.22319      97.1237 
8.51539e-05      10.8582      150.179 
-7.04433e-05      11.5442      128.457 
-6.01746e-05      10.9876     -29.3187 
4.14630e-05      7.52788     -100.563 
1.14442e-05      6.79317      109.071 
-1.14395e-05      2.98622      163.264 
1.13994e-05      2.03637      17.7205 
1.13878e-05      5.45708      14.6477 
-2.16638e-05      4.48005      5.38210 
0.000116899      7.58357      46.7080 
-4.20675e-05      6.12228     -18.0796 
-1.12648e-05      3.31241      42.5487 
2.22614e-05      7.83145     -59.9637 
-5.08354e-05      1.69405     -112.942 
-1.12754e-05      10.6882      36.2480 
7.18099e-05      9.12014      79.2596 
2.17356e-05      12.5266      131.374 
-0.000146958      11.1350      23.3862 
4.10693e-05      8.42779     -177.551 
5.19008e-05      11.3772      63.0310 
1.11463e-05      8.79981     -179.868 
-2.15953e-05      3.01962     -159.047 
-1.67103e-05      8.88195      105.947 
-1.11193e-05      9.59033     -40.4335 
1.10997e-05      11.6772     -140.421 
2.07165e-05      9.51770     -45.4248 
0.000254769      8.00238     -91.4346 
-5.00887e-05      9.74410     -134.750 
2.10699e-05      11.1305     -132.087 
5.82293e-05      11.2718     -49.1004 
-5.98672e-05      6.81806      147.335 
2.10409e-05      8.10227     -80.0483 
2.23482e-05      9.53015      16.4573 
-5.47853e-05      11.2751      120.248 
-3.01301e-05      5.89615      102.338 
-1.09013e-05      9.17173      57.5569 
2.90490e-05      6.28791      160.298 
-2.95588e-05      8.47635     -142.670 
2.77991e-05      6.72463     -130.415 
-0.000260378      10.4652     -168.087 
6.94811e-05      11.9761      31.9643 
-2.08081e-05      10.4059      168.583 
-2.13160e-05      7.87121      80.3464 
-0.000112353      10.1480     -66.4148 
1.08063e-05      5.10588      35.4349 
-3.02870e-05      3.69748      5.59026 
4.08333e-05      9.16243      66.4582 
-4.01897e-05      2.53870     -163.992 
1.07803e-05      4.96685      30.4857 
4.90272e-05      8.43735      108.093 
-1.06871e-05      13.7242     -43.2298 
-7.46732e-05      8.91170      106.158 
-1.06279e-05      6.91202      148.608 
3.11118e-05      11.3065     -115.796 
-8.10799e-05      9.61889     -40.4471 
-1.99111e-05      9.76636      113.151 
-1.05491e-05      4.88667     -86.9544 
1.05186e-05      6.81174      108.491 
1.05087e-05      11.8404      133.562 
-1.04951e-05      9.22124     -168.619 
3.86081e-05      6.98559     -39.8883 
-1.04988e-05      6.61302     -3.64325 
6.68811e-05      7.86893     -59.7868 
-0.000320942      11.6197     -141.711 
7.30463e-05      12.0599      38.3324 
5.52653e-05      11.3001      152.029 
-0.000219387      11.2652      120.162 
0.000116769      9.51721      16.6075 
7.90546e-05      6.44251      163.594 
3.47559e-05      11.2213     -121.962 
-2.87456e-05      13.1251      42.2217 
1.02484e-05      1.34833      110.866 
-7.19074e-05      8.89207      117.605 
-2.00629e-05      8.51195     -173.658 
1.02359e-05      3.46454      129.842 
1.01729e-05      5.45200      14.4417 
-1.99599e-05      12.4789     -35.0146 
-4.78501e-05      7.86784      80.4919 
-5.24965e-05      5.67154      45.7183 
-1.96967e-05      8.83670     -56.6324 
2.71985e-05      5.08939      35.5671 
1.00938e-05      10.5160      105.780 
-3.71315e-05      13.5487      45.3590 
-3.72964e-05      10.8169      33.3086 
-4.40113e-05      11.6512     -149.120 
1.00096e-05      8.77718      47.5882 
1.86168e-05      11.6901     -140.344 
2.92885e-05      1.42474     -38.1555 
-0.000124233      8.30460     -107.957 
2.85889e-05      11.8691      133.565 
3.65691e-05      13.1711     -41.9217 
-9.91166e-06      10.5827      19.4281 
-7.21333e-05      11.6652     -29.0267 
3.63675e-05      9.52860     -126.291 
0.000185140      12.7884      49.8841 
3.58260e-05      7.95976      56.2710 
5.41413e-05      11.3150     -115.885 
5.43914e-05      2.67481     -83.9935 
-2.83156e-05      11.3603      27.2421 
9.83774e-06      12.5534      41.5129 
-9.81409e-06      9.16087      57.6638 
6.79551e-05      8.68686      85.5113 
2.75347e-05      8.89868      71.9317 
-6.72085e-05      12.5520      126.577 
3.71149e-05      7.01413     -39.9092 
-1.83077e-05      3.02038     0.384339 
5.37702e-05      7.49382     -146.100 
1.91421e-05      10.7071      110.329 
-3.61410e-05      9.82198     -115.572 
4.39624e-05      7.44616      148.958 
5.81772e-05      9.06158     -88.9893 
-9.69022e-06      10.1610     -148.028 
-9.68058e-06      1.45111     -101.937 
-0.000132022      13.5259      40.9216 
4.15386e-05     0.885844      96.4688 
-2.65140e-05      10.1377      57.8157 
9.61435e-06      2.02411      18.4349 
-1.85667e-05      10.1484      61.5153 
2.79407e-05      7.53263     -163.970 
-2.70544e-05      8.91793      176.401 
-1.86423e-05      11.0643      26.2870 
1.87301e-05      11.2522     -116.838 
-8.55062e-05      12.4901     -35.0879 
-1.87953e-05      9.20138     -168.594 
9.56534e-06      11.0537     -118.651 
-9.52361e-06      10.4359     -161.912 
-9.53243e-06      7.49468      166.262 
6.80219e-05      9.67204     -53.1559 
1.84493e-05      9.30310     -137.874 
-5.38265e-05      10.6011      19.3930 
-0.000103805      7.58916      87.1322 
2.55234e-05      9.71468      4.84303 
0.000317501      10.5898      107.136 
-1.85194e-05      8.25053     -129.786 
-0.000126599      9.94295     -147.651 
9.34557e-06      12.7757     -126.726 
-1.83473e-05      9.39696     -170.198 
-2.70692e-05      6.10303     -18.1387 
9.32907e-06      8.35248     -93.1570 
0.000369592      13.7610      134.353 
9.30479e-06      11.1436     -132.162 
-9.30951e-06      12.8034      141.214 
1.77662e-05      10.9596      111.745 
-0.000129290      8.49474     -173.513 
9.19664e-06      7.98786      56.2308 
8.16736e-05      11.9926      31.9149 
9.19911e-06      1.30946      97.0110 
0.000109804      9.12394      79.1346 
8.40119e-05      10.1281      21.5468 
2.63514e-05      8.48873      77.8964 
-0.000293328      11.0349      30.3751 
-1.74695e-05      2.96174      163.530 
2.59288e-05      9.18101      66.5087 
3.47102e-05      11.3684      62.8937 
0.000113750      8.40841     -177.412 
2.63709e-05      13.3940     -48.8138 
9.07117e-06      6.10547     -106.949 
-9.05883e-06      12.8308      141.201 
-9.05321e-06      3.54896     -160.239 
-1.74175e-05      10.4042      29.2272 
1.77896e-05      10.7003      110.231 
-9.01267e-06      2.54437     -163.553 
-3.36255e-05      7.47020      166.376 
-0.000120580      10.9642     -65.5398 
-8.97091e-06      8.79752     -56.7803 
3.18471e-05      13.2260     -43.7127 
1.73064e-05     0.665204      83.0674 
8.90660e-06      11.6126      139.122 
5.78276e-05      7.27379      18.9322 
7.72849e-05      7.54655     -164.160 
-2.49716e-05      8.23498     -129.876 
8.86623e-06      6.81162      109.018 
-1.50715e-05      9.12749     -168.370 
-8.53154e-05      12.4164      37.2737 
1.73487e-05      1.44014     -37.6760 
7.16883e-05      13.1560     -41.9807 
2.25402e-05      9.98853     -69.2409 
2.51297e-05      14.1003      45.5153 
-0.000115629      9.38121     -170.055 
-5.72899e-05      12.8466      141.258 
-1.71675e-05      11.3445     -30.0434 
-1.73264e-05      9.83746      166.358 
-8.75353e-06      3.67928      5.92338 
4.73373e-05      3.06040      111.867 
8.75622e-06      8.29896     -123.003 
-2.49658e-05      10.9726     -65.4435 
-2.55187e-05      8.23806     -129.682 
-3.79638e-05      11.3864      27.0598 
2.47367e-05      8.38821     -46.2577 
-4.07624e-05      7.50022      89.6962 
-5.45244e-05      13.7741     -42.4698 
1.69304e-05      12.4851      131.299 
1.69305e-05      1.32957      96.9044 
0.000135057      8.28794     -122.886 
-3.25031e-05      13.1415      42.0376 
-5.64540e-05      9.93212     -94.6195 
8.57562e-06      8.45592      130.397 
5.37057e-05      13.0931      137.416 
2.49732e-05      6.74646     -141.498 
-1.66355e-05      1.68320     -113.822 
8.53255e-06      8.46830      108.308 
-8.55670e-06      6.79070      147.390 
4.72806e-05      10.6743      110.166 
-8.51826e-06      7.85815      80.9236 
8.48346e-06      6.11828     -106.715 
8.48700e-06      6.78826      177.130 
8.47124e-06      12.0637     -135.471 
4.04767e-05      8.00325      10.0761 
-0.000207437      10.5895      19.5315 
-2.45907e-05      10.8390      33.1037 
-1.62729e-05      9.07283     -168.169 
-8.44843e-06      2.56308     -163.677 
-8.43858e-06      10.1387      61.6160 
-8.43434e-06      5.51478     -168.279 
3.06924e-05      8.27886      147.733 
-8.41776e-06      9.07460     -61.5722 
-3.16181e-05      13.5345      45.4200 
1.64681e-05      7.20041     0.638916 
4.74605e-05      14.2430      44.1462 
-8.34657e-06      1.21331     -98.5360 
-1.63116e-05      4.32357      20.8633 
-8.35758e-06      9.54351     -119.088 
-6.10867e-05      9.81777      166.330 
5.45692e-05      13.4073     -48.7486 
5.34492e-05      13.6189     -137.617 
1.62462e-05      7.57818      7.12713 
-0.000105332      11.6475     -29.0750 
8.27418e-06      11.2611     -116.927 
4.61933e-05      8.44280      130.292 
-2.96389e-05      9.77434      113.260 
8.26146e-06      6.82493      109.339 
-7.05747e-05      7.45051      166.339 
-8.24861e-06      7.85509      81.0641 
2.35399e-05      7.90687     -59.6070 
-2.36357e-05      11.2182     -129.792 
8.20210e-06      12.5512      41.6409 
8.19348e-06      1.18938      137.736 
-2.32646e-05      11.5568      128.536 
5.01861e-05      14.0861      45.5741 
-3.16973e-05      12.4215     -34.6347 
8.14575e-06      8.51695     -12.3366 
-0.000219076      9.95180     -109.853 
-0.000124330      10.9699     -29.3706 
-3.87491e-05      9.45544      39.0767 
1.56843e-05      7.00115     -39.7820 
-4.98777e-05      9.05300     -168.142 
-2.31299e-05      9.11302     -96.1735 
-7.39124e-05      9.83074     -115.679 
-7.04774e-05      9.06498     -61.6848 
8.06472e-06      8.50433      78.0585 
2.32725e-05      8.44343      108.219 
0.000194655      11.3005     -154.977 
1.54844e-05      9.53237     -126.124 
-2.33024e-05      1.23055     -97.4630 
2.30838e-05      5.58374     -61.7853 
3.03962e-05      8.46713      102.691 
-2.32713e-05      10.4121      29.0755 
3.07354e-05      10.6209      107.308 
3.06022e-05      9.52553      91.9231 
1.55506e-05      7.61769      3.91432 
3.71920e-05      9.40609     -165.342 
-3.66606e-05      13.8979     -132.784 
-2.31305e-05      3.45322      70.7264 
1.53516e-05      10.9857      111.801 
-7.97906e-06      10.9120     -111.392 
-0.000142099      12.4363      37.0912 
-2.35649e-05      10.3832     -170.466 
7.91373e-06      1.07484      133.501 
7.91479e-06      1.14557      106.203 
2.30716e-05      11.2522     -117.066 
-2.27327e-05      10.7746     -30.3259 
2.15163e-05      7.74623      38.2931 
-7.87547e-06      5.90051      102.530 
-2.95539e-05      10.3536      71.5309 
-7.87004e-06      6.72747     -49.8229 
1.52572e-05      10.6151      107.208 
-5.10125e-05      4.11644     -114.696 
4.37255e-05      11.3603      62.7579 
-1.54669e-05      7.85197      81.2101 
-1.33812e-05      4.59786      153.657 
-7.83691e-06      8.35270      165.861 
-7.94275e-05      11.6038     -141.649 
-1.52632e-05      5.46006     -167.950 
4.10479e-05      9.52489      91.8058 
1.50491e-05      7.48836     -145.885 
1.44110e-05      11.6273      139.185 
2.84867e-05      7.59829      7.10817 
1.49219e-05      11.3174      152.076 
1.53373e-05      2.67700     -83.5623 
-5.39080e-05      10.1820      104.446 
7.77093e-06      11.6745     -140.281 
-6.40052e-05      8.22248     -129.772 
2.12198e-05      7.63790      3.90394 
2.99722e-05      6.76233     -141.605 
-7.75991e-06      9.55075     -87.2394 
7.75382e-06      1.30722      96.1622 
7.74972e-06      1.45622     -37.1888 
3.22378e-05      10.6919     -17.0806 
-1.51530e-05      9.53635     -119.252 
-4.31573e-05      10.8227      33.1601 
-4.38730e-05      8.88270      117.489 
7.73186e-06      2.53081      109.864 
7.71223e-06      11.3205      47.0038 
7.70525e-06      6.83141      109.494 
7.68620e-06      7.90048      179.418 
2.20995e-05      6.14942     -125.604 
3.45826e-05      9.18910      66.3929 
0.000138367      12.9227     -40.5421 
1.49306e-05      12.5137      131.307 
4.31360e-05      7.06031     -101.439 
-1.46553e-05      10.7724     -55.8970 
0.000154175      10.2400     -89.6641 
-2.19720e-05      8.66193      128.058 
-8.52983e-05      6.29350      41.1326 
2.88572e-05      8.69369     -26.8017 
2.20836e-05      7.16089     0.798559 
-0.000162725      10.3474     -170.318 
0.000161129      10.1580      21.3621 
-1.43873e-05      9.55311      20.9790 
3.59803e-05      8.22079      96.9888 
-2.17023e-05      9.47424      146.275 
0.000195257      12.4920      52.8733 
7.89481e-05      12.0567      38.4677 
2.86463e-05      6.63106     -125.177 
0.000116934      7.98405      10.1006 
-7.55773e-06      9.14376      57.5959 
7.54713e-06      1.42784     -37.0325 
-8.39503e-05      12.4104     -34.5606 
1.35225e-05      2.93600      24.1216 
8.02427e-05      9.36437     -141.415 
6.26975e-05      7.61592      6.93806 
-7.66492e-05      9.93051     -94.5030 
2.14626e-05      9.85154      87.2058 
1.47315e-05      8.89358      60.4956 
-2.90409e-05      12.9838      131.129 
-4.03334e-05      8.37712      165.766 
-8.39352e-05      7.48010      89.5402 
-1.48450e-05      9.51590     -149.988 
7.48520e-06      1.32737      96.0683 
-1.47437e-05      9.19483      85.0092 
-0.000139488      12.3668      125.721 
7.46242e-06      8.43034     -46.1504 
3.56191e-05      8.97439     -139.065 
-7.44721e-06      11.6345     -149.071 
-6.97446e-05      12.8624      141.314 
-1.43770e-05      9.95071     -94.4938 
2.88541e-05      12.2149      146.961 
-6.79218e-05      10.3674     -170.337 
7.43211e-06      8.70940      77.3994 
-2.83371e-05      13.1581      41.8585 
-1.41857e-05      8.46024     -142.586 
-7.40747e-06      2.91736      163.672 
7.39774e-06      10.9849      60.9154 
0.000102223      11.4399     -153.077 
2.06863e-05      8.71178     -26.7416 
-4.11388e-05      9.44677      146.311 
7.16409e-05      14.2289      44.0876 
4.80176e-05      11.3238     -115.978 
-7.32677e-06      7.84901      81.3509 
-5.52859e-05      11.3118      132.349 
2.78921e-05      2.92660      24.6397 
7.30134e-06      6.73779     -130.547 
-7.29929e-06      9.63432     -40.3690 
7.50568e-05      12.0164      31.7308 
7.28570e-06      8.45110      31.0562 
7.31383e-05      11.2614     -117.158 
-4.06511e-05      9.11086     -96.0468 
-8.28252e-05      12.5017     -35.1639 
1.39456e-05      7.41938      149.009 
-1.39750e-05      7.87463      80.2011 
2.72786e-05      9.12778      79.0097 
-1.41481e-05      10.3790     -159.469 
-3.35318e-05      11.2057     -129.716 
-7.18008e-05      10.4298      29.0214 
-0.000101472      6.69566      55.8344 
1.43409e-05      9.83108      87.3182 
-7.20288e-06      6.07819     -18.0144 
-2.06512e-05      8.09441     -50.2128 
2.79059e-05      12.5042     -37.2007 
0.000100312      12.2002     -53.1308 
1.36509e-05      10.8852      150.137 
-4.56250e-05      8.94229      106.367 
-3.77587e-05      3.37824      70.2811 
3.94827e-05      11.3334      46.7895 
4.61858e-05      13.0622     -128.659 
2.07876e-05      8.99238      60.4123 
7.08288e-06      9.54502      91.9192 
-4.36635e-05      9.52605     -149.882 
-1.97781e-05      10.4729      156.716 
-7.07473e-06      10.9600     -29.2783 
5.42982e-05      12.8219     -50.8238 
-1.36411e-05      5.44098     -167.907 
1.39541e-05      9.78716      87.7766 
7.05604e-06      6.13212     -106.486 
-7.05563e-06      9.18621      157.063 
0.000107223      12.6084     -138.344 
6.66001e-05      13.8629     -43.7148 
3.91039e-05      9.65583     -53.0838 
-1.39707e-05      13.8830     -42.8403 
1.37565e-05      6.83820      109.654 
7.02437e-06      11.9076     -47.7916 
-7.04075e-06      5.90478      102.715 
-2.03257e-05      9.16105      90.8776 
-5.60438e-05      4.57971      153.544 
6.48827e-05      5.57454     -61.9620 
0.000124452      8.97647     -139.248 
-3.25415e-05      13.8017     -42.4749 
-1.39049e-05      13.5203      45.4812 
-7.00440e-06      9.92818      177.691 
-6.97420e-06      10.1399     -66.5197 
1.36039e-05      8.70501      77.5296 
-3.28007e-05      9.83282      32.2019 
0.000181184      12.2260      146.881 
-2.03356e-05      9.43636      39.3237 
2.68237e-05      10.9273     -158.977 
-6.95616e-06      6.80714      147.478 
-3.97923e-05      13.0119      131.135 
-2.67619e-05      11.3400      132.353 
-1.35953e-05      5.68570      45.5721 
8.10247e-05      11.3512      62.6236 
7.64913e-05      12.9331     -52.3495 
-6.92656e-06      11.0377      26.4727 
-3.17619e-05      10.9424     -29.3301 
5.58570e-05      9.85057      87.3235 
6.91896e-06      7.22021     -175.709 
-3.28055e-05      9.20487      157.112 
1.35245e-05      13.2113     -43.7734 
6.88676e-06      7.85685      52.3410 
-9.93858e-05      10.6924      54.8232 
9.80292e-05      13.8329     -47.7527 
6.88678e-06      7.04847     -101.788 
9.64104e-05      11.5301      152.634 
1.34429e-05      6.77493     -141.471 
-1.33217e-05      8.90030     -52.4847 
-6.62729e-05      12.5641      126.652 
3.30026e-05      10.9785      111.706 
-0.000158384      11.6747     -132.987 
-1.33489e-05      13.8979     -42.7835 
1.99244e-05      9.33639     -72.4199 
1.33942e-05      11.3132     -49.0154 
6.82305e-06      7.18040     0.796389 
-6.81657e-06      9.94920     -94.3818 
9.33351e-05      10.9084     -158.939 
6.79365e-06      8.48451      78.0302 
-3.69723e-05      12.8281      135.820 
2.58852e-05      9.76693      87.8866 
-1.32724e-05      13.7495     -132.111 
-0.000120958      11.9925      146.151 
-6.75848e-06      9.68358      72.1997 
-6.72059e-06      13.5205      45.5981 
-6.81201e-05      7.97163      140.600 
6.72130e-06      6.42308      163.542 
-6.72103e-06      9.51868     -119.311 
6.71835e-06      8.40222      130.171 
-5.77712e-05      1.70175      156.453 
-6.69938e-06      11.2996     -30.0606 
-4.34088e-05      10.3909     -159.612 
6.67983e-06      8.76487      47.8662 
4.32512e-05      9.94040      150.600 
3.20794e-05      8.21835      96.8486 
1.95711e-05      6.72807     -38.8474 
-6.28359e-05      9.83954     -115.785 
4.34131e-05      6.62443     -124.790 
2.48184e-05      13.6339     -137.675 
-2.51052e-05      2.56864     -163.259 
-1.32389e-05      13.9728     -134.537 
-3.82961e-05      13.1742      41.6774 
-6.64907e-06      8.91907      117.656 
-3.59918e-05      11.6587     -149.254 
1.84124e-05      9.06196     -88.8613 
6.63443e-06     0.907689      97.6009 
-2.48276e-05      10.1235      164.179 
-7.33230e-05      10.2078     -2.24549 
-5.53423e-05      13.6532      131.912 
-3.05853e-05      13.9128     -132.727 
-0.000156237      12.8776      141.368 
1.26277e-05      7.14094     0.963370 
1.21113e-05      8.00190     -91.2896 
6.59147e-05      8.88028     -89.6127 
5.44870e-05      12.5321     -37.2157 
-3.12135e-05      9.66905      42.4020 
1.93722e-05      10.0205      140.750 
6.55670e-06      9.10099      148.023 
1.94343e-05      13.1259      44.0133 
2.47476e-05      9.01001      60.4759 
-1.28619e-05      13.5064      45.6595 
6.50919e-06      12.7753      49.9536 
-6.50040e-06      9.67655      71.9388 
-6.49732e-06      8.10739     -50.1028 
-1.28393e-05      8.20953     -129.663 
1.26816e-05      9.99546     -69.1364 
-6.48860e-06      9.54792     -103.077 
-1.28268e-05      3.06135     -161.330 
1.27197e-05      7.80966      152.386 
1.24061e-05      8.30617      147.687 
-5.00975e-05      12.3989     -34.4835 
-2.39669e-05      7.60845      87.2866 
-4.33837e-05      10.5231      128.983 
1.85644e-05      5.76582      177.419 
6.46714e-06      8.02546      39.6396 
-3.64244e-05      10.8454      32.9589 
6.43415e-06      10.9947      60.8231 
-6.42158e-06      4.12495     -114.952 
-6.40695e-06      5.69965      45.7094 
-6.41513e-06      9.42128      39.3989 
2.43803e-05      11.5557      57.0808 
1.86958e-05      9.65836      28.8471 
-6.39441e-06      9.87228     -94.6475 
8.48970e-05      11.3238     -116.202 
1.84157e-05      6.84504      109.814 
1.83472e-05      7.83701      152.323 
-6.39469e-06      9.56237     -102.933 
-3.69588e-05      13.9864     -134.711 
4.72418e-05      7.61839      7.08932 
1.89080e-05      8.72479      77.5583 
-6.39212e-06      12.1551      133.066 
1.25858e-05      6.16580      155.266 
9.39082e-05      12.8632     -50.7409 
1.25646e-05      10.9521      111.647 
-6.34635e-06      9.51097     -119.477 
-7.79758e-05      11.3250      132.422 
0.000111582      12.0270      31.8129 
-3.20416e-05      8.07885     -50.1208 
7.17198e-05      8.40935     -177.274 
1.25187e-05      10.9226      130.545 
6.55317e-05      9.71961      99.7161 
3.00108e-05      9.35499     -72.4560 
-3.71451e-05      9.87066     -94.5303 
6.33744e-06      1.06150      132.737 
-2.98277e-05      13.9128     -42.7269 
2.45997e-05      9.24635     -81.2899 
2.47831e-05      13.1405      43.9519 
-1.24460e-05      8.69779     -34.1274 
-1.81986e-05      12.0516     -43.7891 
1.25031e-05      11.2702     -117.019 
-2.98187e-05      9.89554      67.1682 
4.87098e-05      10.1009     0.681047 
5.98087e-05      9.04510      80.4541 
-1.85266e-05      4.11489     -115.317 
2.35140e-05      7.59697      46.6009 
-6.26078e-06      7.89119      80.3711 
1.81561e-05      8.02761      39.4394 
5.85781e-05      9.14310      79.1576 
6.24992e-06      9.42569     -165.373 
-5.87593e-05      8.19453     -129.750 
-6.23332e-06      13.4927      45.7188 
-6.23683e-06      11.3536      132.429 
6.22389e-06      10.4865      105.600 
-4.70128e-05      9.10883     -95.9248 
2.42542e-05      10.0362      140.823 
-1.21013e-05      3.04216     -161.208 
-3.49105e-05      12.1265      133.062 
4.65938e-05      12.6860     -140.436 
0.000122650      12.2280     -53.1097 
-2.97313e-05      11.4019      131.801 
3.52952e-05      6.88526     -142.198 
1.82119e-05      6.75609     -38.8685 
6.20291e-06      12.9455     -52.2785 
6.21759e-06      8.37293      148.777 
-6.21131e-06      9.46533      54.0241 
5.24405e-05      10.6128      74.3679 
-1.79372e-05      9.55785     -102.814 
6.17358e-06      12.5552      131.382 
-4.09558e-05      9.42992      146.243 
-3.60194e-05      9.16137      90.9997 
-3.50656e-05      12.8617     -41.7221 
-1.82309e-05      9.38791      39.7270 
-2.35642e-05      7.89460      80.2261 
-4.05722e-05      13.2549      39.5514 
-4.10880e-05      9.43519      41.5632 
2.40536e-05      12.7044     -140.623 
-2.40343e-05      12.3408     -125.234 
-1.21930e-05      13.4786      45.7804 
1.20950e-05      10.8325      143.785 
6.12924e-06      12.3242      54.7113 
-2.99534e-05      13.1894      41.6189 
6.11108e-06      9.22778     -106.235 
-1.18359e-05      11.4045      27.0135 
-9.25825e-05      1.72845      156.106 
-2.90119e-05      13.0538      131.210 
4.80597e-05      12.3503     -144.224 
4.62556e-05      14.0719      45.6330 
4.04330e-05      10.4811      105.493 
-6.07258e-06      9.67682      71.5651 
4.14058e-05      9.78380      91.6393 
-2.94305e-05      12.8471     -41.7800 
6.06602e-06      7.69139     -131.733 
6.85314e-05      12.9661     -40.4959 
-2.37630e-05      11.3177      122.735 
4.60375e-05      7.93371      150.720 
-1.19918e-05      9.42678     -70.0274 
-6.03881e-06      9.18226     -168.570 
-6.03093e-06      13.7631     -132.174 
4.07422e-05      9.23346     -106.355 
5.25556e-05      13.1545      43.8929 
0.000120449      10.1762      21.3220 
-6.03301e-06      9.05026      41.8643 
-2.32410e-05      11.1928     -129.636 
3.44757e-05      10.9447      111.548 
-6.31839e-05      9.28038      179.504 
-5.99983e-06      9.78236      113.369 
5.99597e-06      10.8580      50.6791 
1.74925e-05      9.11818      148.090 
-5.98315e-06      13.4645      45.8422 
5.98335e-06      8.72061      77.6835 
8.01056e-05      10.2399     -89.7775 
-2.93966e-05      9.85284     -94.6567 
-5.97743e-06      3.64190      6.30499 
-4.65260e-05      12.3879     -34.4091 
4.60659e-05      10.3317     -163.002 
4.57994e-05      12.3360      54.6345 
-5.96284e-06      9.22284      157.159 
1.77622e-05      9.49780     -73.3576 
-2.88645e-05      9.92647     -147.591 
5.95106e-06      11.8551      133.495 
-1.74576e-05      9.49399     -119.535 
-2.88692e-05      8.90349      101.005 
2.30746e-05      5.56504     -62.1461 
-2.89134e-05      13.2607     -130.658 
-5.92759e-06      9.67679      71.1899 
-1.16955e-05      7.40727      166.413 
2.31269e-05      9.34554     -141.170 
6.27895e-05      12.0414      38.5254 
3.47547e-05      12.3339     -144.169 
5.92225e-06      12.5833      131.393 
5.92343e-06      6.21040      155.250 
-3.97417e-05      12.1767     -45.4644 
-1.73217e-05      11.6305     -29.1217 
-5.91176e-06      13.4505      45.7843 
1.16828e-05      10.0216     -69.0694 
1.74400e-05      9.66802     -52.9878 
-3.99696e-05      10.0540      110.130 
1.73885e-05      8.35561      148.705 
-1.75178e-05      10.5103      128.897 
1.15316e-05      5.45375      74.6903 
-5.13056e-05      12.4201      37.1475 
1.73855e-05      10.9157     -158.840 
4.55247e-05      12.6214     -138.278 
5.68815e-05      12.2371      146.802 
-4.56033e-05      12.3549      125.645 
-1.74374e-05      13.4369      45.8440 
3.42121e-05      9.64860      28.7417 
1.73036e-05      9.02907      67.4673 
-3.43056e-05      9.83937     -116.043 
5.86673e-06      12.6114      131.399 
2.84954e-05      9.04711      155.306 
-0.000101742      10.3307     -170.193 
-2.28851e-05      9.37233      39.8062 
5.65973e-05      10.1204     0.679734 
6.75545e-05      11.3236     -116.431 
1.14347e-05      8.11635      86.3265 
1.14616e-05      8.24090      96.9717 
5.09448e-05      12.9207     -52.4207 
5.82206e-06      13.0591     -128.784 
-5.81897e-06      13.9679     -132.853 
1.15806e-05      9.24330     -81.4140 
2.83667e-05      9.48687      7.75516 
-1.14842e-05      9.38007      12.4363 
-2.82407e-05      9.10141     -61.5185 
-5.81428e-06      9.41988     -70.1432 
-3.95728e-05      13.9726     -134.654 
-1.73172e-05      13.2057      41.4386 
-1.72709e-05      12.8000      143.129 
5.79200e-06      10.9353      130.623 
-2.26711e-05      9.06380      41.9597 
-2.83468e-05      13.5106      40.9779 
-3.39670e-05      12.3461     -125.106 
1.72488e-05      12.6394      131.409 
-1.71928e-05      10.0934     -92.9532 
1.70564e-05      10.8772      143.825 
1.70911e-05      8.32330      147.761 
1.13754e-05      6.19200      155.171 
-2.26674e-05      10.4219      29.1728 
-5.77934e-06      13.9817     -132.914 
5.76761e-06      9.50402      91.6876 
1.69531e-05      10.8481      50.9125 
2.26232e-05      11.5447      57.1652 
2.25863e-05      9.40012     -90.1235 
-1.13152e-05      10.7891     -55.9574 
1.13989e-05      12.7908      50.0120 
5.73789e-06      5.39903      14.8088 
5.74298e-06      6.77129     -38.7649 
1.13409e-05      10.0647      140.806 
-5.73333e-06      13.9949     -132.973 
2.82122e-05      9.78440      91.7579 
1.12445e-05      11.8270      133.494 
-2.25858e-05      9.39491     -70.2147 
-5.72332e-06      9.67717      70.8148 
1.12777e-05      7.65737      3.89400 
5.70096e-06      6.85168      109.967 
-2.80156e-05      13.6396      131.849 
-2.24062e-05      8.51413     -173.528 
-1.69912e-05      10.1876     -2.24996 
-2.81294e-05      13.4228      45.9060 
-5.70070e-06      8.72593     -34.1629 
2.80691e-05      10.8902     -158.902 
-2.80577e-05      10.5388      128.913 
-2.79910e-05      10.5960      19.6309 
-2.80119e-05      10.6808      54.9120 
5.69100e-06      7.67792     -131.621 
-5.68118e-06      12.1561      131.532 
-5.68630e-06      11.7295      35.0728 
1.12870e-05      14.0583      45.6899 
-1.13550e-05      14.0226     -133.094 
-3.36123e-05      13.2209      41.3805 
-1.68228e-05      10.3719     -159.573 
-1.13232e-05      11.2897      122.705 
1.13240e-05      12.6680      131.417 
2.79234e-05      11.5053      37.7272 
-5.66686e-06      8.61624      127.456 
-2.24036e-05      10.1770      104.335 
1.12645e-05      11.0124      60.8745 
1.12026e-05      12.7040      43.4683 
-2.79593e-05      9.85121     -94.5393 
-5.67016e-06      6.29163      41.3929 
2.24053e-05      13.8858     -137.394 
-1.68506e-05      12.3764     -34.3318 
3.90247e-05      13.1691      43.8318 
-5.66920e-06      2.58253     -163.803 
-5.66787e-06      4.10601     -115.689 
-1.68031e-05      12.5134     -35.2397 
-2.79460e-05      11.3387      132.498 
-1.11483e-05      13.8589     -42.4853 
-5.63627e-06      9.24939      157.092 
-1.67121e-05      10.1126     -92.8327 
-5.63930e-06      7.38757      166.376 
5.64059e-06      6.79978     -38.7911 
2.23109e-05      11.4921      126.651 
-1.11912e-05      9.34484     -169.890 
5.63711e-06      8.71631      77.8136 
-2.22910e-05      10.2289     -2.35445 
-2.78238e-05      12.8935      141.425 
5.62573e-06      2.97194     -137.179 
-2.22619e-05      12.7878      143.201 
1.11400e-05      9.13931      79.2824 
2.78177e-05      12.6961      131.423 
-1.67103e-05      14.0359     -133.152 
-1.11337e-05      8.60394      127.349 
-5.59296e-06      10.5256      68.0158 
5.58527e-06      12.8725     -51.6871 
-1.10953e-05      11.1535     -63.2505 
5.58888e-06      9.21815     -81.6404 
1.75130e-05      7.07015     -39.9496 
1.66974e-05      8.42959     -177.280 
-5.58194e-06      8.26270      121.035 
-5.59042e-06      13.8995     -132.668 
2.21893e-05      11.8211      30.1653 
5.56888e-06      9.51721     -73.3925 
1.11185e-05      2.95766     -136.923 
5.57246e-06      10.7607      148.142 
-1.66069e-05      9.16793      167.785 
-1.10802e-05      9.10676     -95.7980 
-1.10985e-05      12.8903     -41.7294 
-5.55395e-06      3.37171      70.5932 
-5.56228e-06      10.7778     -129.806 
-1.10736e-05      11.7136      35.1276 
5.55775e-06      6.17430      155.095 
5.55578e-06      10.8975     -158.803 
-5.56529e-06      13.2591     -130.780 
-5.55654e-06      11.6128     -29.1704 
-1.10703e-05      9.84829     -116.149 
-1.65582e-05      10.5287      68.2600 
-5.53979e-06      8.87681      100.777 
-1.10474e-05      9.53623     -149.777 
-1.10818e-05      12.3650     -34.2542 
5.53475e-06      10.7779      148.199 
-1.10569e-05      13.4087      45.9682 
-5.54526e-06      10.4067      29.4707 
1.10608e-05      9.23919     -106.476 
-5.54380e-06      8.25227      120.915 
5.54174e-06      5.45914      74.4852 
5.53340e-06      10.7494     -159.071 
-5.52325e-06      9.38807     -70.3311 
-5.52647e-06      9.76708      50.8995 
5.53075e-06      10.0798      140.877 
-5.52204e-06      14.0498     -133.212 
5.52603e-06      12.8039      49.9425 
5.52347e-06      8.39973      148.733 
5.52803e-06      8.10752      11.6729 
-5.51533e-06      12.6313     -47.9521 
-5.51328e-06      9.14111      91.0019 
5.50371e-06      12.0270     -31.8129 
-5.49608e-06      8.47550     -112.328 
-5.50142e-06      11.1907     -129.779 
-5.50535e-06      9.41459      12.2638 
5.50556e-06      9.80527      91.8683 
-5.51321e-06      11.6885     -133.059 
5.50936e-06      8.43722      150.457 
-0.000134695      12.8639      132.920 
-0.000159731      8.94279     -85.8955 
-7.36437e-06      12.7301     -133.983 
0.000227603      7.04209     -39.9338 
-2.61893e-05      11.1007      23.2393 
-0.000119809      12.0201      143.323 
0.000131553      11.6845      43.7510 
-9.48528e-05      12.7161     -133.917 
-0.000113053      13.4924      45.6016 
6.40610e-05      10.5269      155.772 
-7.98922e-05      9.53279      163.923 
8.63966e-05      13.8193     -47.8148 
-9.99590e-05      11.0901      23.3768 
-2.54648e-05      7.05042      61.9103 
-7.38441e-05      9.45946     -69.8429 
-0.000139766      12.8920      132.927 
-5.70561e-05      10.4580      35.8182 
6.73949e-06      7.28040     -164.057 
6.66033e-05      12.7261      52.0868 
7.94276e-05      7.65157     -131.398 
-1.91743e-05      10.2254     -175.960 
9.06262e-05      7.83644      52.7790 
-4.92354e-05      8.28327      121.271 
2.44842e-05      9.39878     -72.0265 
3.05365e-05      10.6976     -17.1804 
-1.85818e-05      4.72598      141.531 
2.50478e-05      6.96099     -104.477 
4.85141e-05      8.75129      47.9646 
4.98938e-05      7.29916     -164.099 
6.66975e-05      10.6041     -57.8687 
2.48385e-05      8.00552      150.681 
1.82799e-05      8.67628     -26.8598 
-1.24698e-05      10.1089     -92.3824 
1.25203e-05      7.98833      97.4808 
-0.000115567      8.05089     -50.1425 
1.85715e-05      6.06834     -100.826 
6.35744e-06      12.3295     -144.042 
-6.34461e-06      5.00307      92.0629 
-1.84282e-05      10.2966     -173.980 
-6.59838e-05      8.84938      122.538 
-5.37825e-05      12.9716      141.699 
4.73144e-05      12.4841     -49.5489 
1.22819e-05      7.65391     -131.188 
-1.22382e-05      12.0325     -37.2322 
6.23418e-06      1.78414      109.662 
1.80320e-05      11.4042      116.339 
-3.69836e-05      10.7571     -30.3804 
-6.17026e-06      10.1098     -92.4929 
1.25741e-05      11.6950     -140.621 
-1.20823e-05      3.28579     -114.071 
-6.15402e-06      6.68981      56.2190 
6.10595e-06      9.39254     -72.1441 
6.11066e-06      1.61974     -32.9170 
6.07065e-06      9.50694      7.73869 
-0.000184407      6.97006      140.005 
4.72903e-05      1.81616      110.636 
-6.05670e-06      12.7307     -133.854 
3.54822e-05      12.8805      47.3893 
6.03646e-06      9.29045     -140.417 
1.17541e-05      8.11273      86.7496 
6.01183e-06      4.21443      82.6346 
-6.56165e-05      12.5505      50.7554 
-5.99650e-06      7.43156      166.303 
-5.94950e-06      4.63415     -4.45777 
-5.94881e-06      4.81545     -110.163 
2.33983e-05      12.0856     -49.4292 
4.18400e-05      11.1736      136.015 
3.51553e-05      8.78541     -91.9579 
-5.91709e-06      10.7556     -56.2223 
-5.91423e-06      10.8485     -40.7393 
-5.90920e-06      10.0568      82.9195 
-3.14182e-05      9.40563      39.4772 
1.28234e-05      9.30549     -140.494 
-1.87744e-05      10.1081     -92.2677 
-7.24064e-05      6.67899      56.3581 
1.23560e-05      12.7141      52.1562 
2.98002e-05      7.96562      97.3553 
7.84784e-05      6.65201     -124.837 
6.66673e-05      11.7079     -140.545 
2.40473e-05      12.0438     -49.5129 
6.10006e-06      5.83537      28.6710 
2.97980e-05      9.28779     -140.241 
6.03066e-06      6.64046     -124.694 
-4.71799e-05      9.15878      84.7397 
-2.37935e-05      11.4488      26.7867 
-2.32888e-05      10.2456     -175.968 
6.16844e-05      9.30337     -140.321 
-1.82886e-05      10.1073     -92.1529 
6.14433e-06      5.80469     -74.0017 
6.13672e-06      6.97062     -104.113 
-2.37031e-05      4.46766     -150.796 
1.21534e-05      2.21540      83.2698 
3.55574e-05      10.9571      150.113 
-3.52669e-05      11.3949      132.510 
4.11042e-05      10.5361     -135.537 
2.95226e-05      12.8937      47.3255 
-1.19095e-05      10.2987     -173.868 
4.71078e-05      7.98786      150.610 
-3.55030e-05      12.9657      50.8839 
-1.75203e-05      7.57293      86.6712 
5.93305e-06      4.19764      82.3363 
-1.78053e-05      10.7770     -40.7874 
-5.01221e-05      9.39000      39.5558 
-5.45424e-05      7.29916      15.9009 
1.83437e-05      10.2906      69.5207 
-4.74362e-05      10.8013     -30.3630 
2.32823e-05      6.98482     -103.918 
-3.53969e-05      12.8568      135.818 
1.18173e-05      9.54875     -126.052 
2.34948e-05      5.68912     -125.698 
-5.83187e-06      9.93001     -161.564 
-1.15046e-05      10.8052      25.9013 
-1.15554e-05      4.61535      153.764 
3.60170e-05      12.9620     -46.9987 
1.19629e-05      2.21320      83.7714 
2.34050e-05      10.5454      155.817 
3.00249e-05      7.31865     -164.143 
-1.77268e-05      4.28955      21.8982 
-1.77967e-05      10.1066     -92.0424 
1.15752e-05      9.47839     -73.3225 
1.75513e-05      8.14321      59.2780 
-5.76033e-06      3.27535     -114.528 
5.73407e-06      8.69561      54.7382 
-5.73979e-06      9.47637     -119.596 
5.72903e-06      9.31344     -15.8268 
-1.16728e-05      9.48547     -69.7702 
-1.15775e-05      11.0722      23.4168 
-5.87875e-06      4.71842     -5.10946 
-1.16343e-05      10.7490     -40.7735 
1.15967e-05      9.35723     -15.8798 
-1.72447e-05      13.4788      45.6609 
1.14298e-05      9.55368     -125.886 
-1.14082e-05      9.46842     -119.759 
-5.70791e-06      9.35006      31.1743 
1.14623e-05      2.23051      84.3431 
1.13542e-05      9.48377      91.6912 
6.14412e-06      9.30076     -140.145 
5.91957e-06      10.3089      69.5587 
5.87566e-06      7.57685      23.6531 
5.81426e-06      5.67268     -125.818 
5.74855e-06      1.20142      108.424 
5.69244e-06      9.53223      114.416 
-5.68984e-06      4.81034     -110.691 
5.68255e-06      9.28521     -140.065 
5.66513e-06      10.1901     -15.4823 
! Tentative model.
! Flux (Jy) Radius (mas)  Theta (deg)  Major FWHM (mas)  Axial ratio   Phi (deg) T \
! Freq (Hz)     SpecIndex
-6.70899e-06      6.97037      140.005 
