! Center RA: 12 21 31.69052,  Dec: +28 13 58.50011 (2000.0)
! Established model.
! Flux (Jy) Radius (mas)  Theta (deg)  Major FWHM (mas)  Axial ratio   Phi (deg) T \
! Freq (Hz)     SpecIndex
 0.0355901    0.0720098     -33.5245 
 0.0295958    0.0848966     -45.0000 
 0.0146604     0.100252      36.7841 
 0.0161428     0.113549      45.0000 
0.00852474     0.215843      68.1616 
0.000851815     0.197181      65.9711 
0.000400297    0.0896014      26.3505 
0.00117249    0.0633577     -18.6495 
0.00472655     0.234065      69.9384 
0.00236864     0.100252     -36.7841 
0.00504038     0.113549     -45.0000 
0.00798474     0.247514      75.9638 
0.00222099     0.262662      81.2912 
0.000971845     0.128090     -38.8171 
0.000465408     0.340529      93.4109 
0.00959815     0.141141     -45.0000 
0.000449201     0.362375      96.3009 
0.00346414     0.381773      95.9795 
0.00120358     0.243395      80.5958 
0.00106684     0.605655      97.6181 
0.00362754     0.624998      97.3810 
0.00242875     0.227911      74.7283 
0.00388546     0.100252      53.2159 
0.00390595     0.401929      95.6787 
0.00111010     0.603304      95.7106 
0.000351580     0.622720      95.5320 
0.000330534     0.209153      73.3204 
0.000448309     0.714035      101.334 
0.000438512     0.632861      108.456 
0.000651598     0.737890      102.510 
0.000221304     0.601626      93.7903 
0.000844071     0.580403      92.0005 
0.000662810    0.0633577      71.3505 
0.00138864     0.761484      103.680 
0.000922354     0.639305      110.115 
0.00138603     0.169793     -45.0000 
0.00147380      2.32846      103.911 
0.000810187     0.141141      45.0000 
0.000266699     0.380236      93.0544 
0.000439253     0.580049      90.0000 
9.07381e-05      2.32384      103.444 
0.000169565    0.0446338      63.0042 
0.000356929     0.559789      90.0000 
0.000245478     0.156126      39.7351 
0.00134167     0.204262      78.7726 
0.000146612     0.667840      98.5944 
0.000713587     0.710331      99.7310 
0.000279596     0.184432      77.5470 
0.000912889     0.170734      69.4145 
0.000136703     0.730308      99.4623 
0.000528901     0.753070      100.739 
0.000623285     0.583147      95.9087 
0.000364888      2.48364      104.935 
0.000337896      2.67772      103.830 
0.00117466      2.68263      104.250 
0.000722245      2.48893      105.385 
0.000621052     0.772985      100.459 
0.000586659      2.46479      105.052 
0.000821271    0.0896014     -26.3505 
0.000562849     0.144435      56.2274 
0.000802081     0.792179      100.203 
0.000112550     0.585580      97.8809 
0.000221898     0.161670      60.2221 
0.000109192     0.399956      90.0000 
0.000827189     0.116465     -31.0271 
0.000216112      2.47013      105.505 
0.000424961     0.815725      101.300 
0.000315502      2.45422      109.022 
0.000541725     0.380236      86.9456 
0.000203801     0.858779      102.105 
0.000658074      2.18836      108.099 
0.000101956     0.655281      102.365 
0.000200852      2.46089      109.468 
0.000200322      1.08207      117.507 
0.000297518      2.69266      103.308 
9.92106e-05     0.627803      99.1471 
0.000936371      1.09157      118.450 
9.78125e-05     0.878599      101.828 
0.000554089      2.21395      108.435 
0.000190006     0.156126      50.2649 
9.67775e-05      2.44180      109.627 
9.66629e-05     0.675085      101.997 
0.000904803     0.144435     -33.7726 
0.000191521      2.68824      102.904 
0.000362945     0.400469      87.1001 
0.000188158     0.902718      102.823 
0.000184026     0.561200      94.0638 
9.43591e-05      2.46746      109.895 
0.000367888      2.70284      102.393 
9.24511e-05      2.44842      110.057 
9.17935e-05     0.694181      101.662 
0.000266005      2.47443      110.336 
9.04976e-05     0.898439      101.563 
9.04270e-05      2.62075      105.954 
0.000176146      2.72263      102.301 
0.000340016     0.921752      102.554 
0.00106941      1.10137      119.377 
0.000171138     0.540658      92.1476 
0.000332094      2.71838      101.884 
8.54336e-05      2.64562      106.240 
8.50390e-05      2.45544      110.501 
0.000324997      2.48155      110.775 
0.000163352      2.37776      102.633 
0.000845585     0.172194     -35.4216 
0.000321775      2.22044      108.931 
0.000163755      2.73748      101.800 
0.000238918     0.560155      92.0728 
0.000310146     0.144435      33.7726 
8.06825e-05      2.87651      103.271 
7.97340e-05     0.945882      103.441 
7.94771e-05      2.90075      103.555 
7.87138e-05      2.73356      101.399 
0.000229568      2.92045      103.461 
7.76635e-05      2.35799      102.740 
0.000227717     0.941538      102.286 
0.000446917      2.48853      111.195 
0.000450297      1.11107      120.254 
0.000150914      2.22684      109.406 
0.000217833      2.35361      102.259 
0.000218117      2.71443      101.481 
0.000319624      2.93943      103.373 
7.36263e-05      2.09617      105.489 
0.000143429      2.26574      110.674 
7.24832e-05      1.04947      120.985 
7.22412e-05     0.937436      101.076 
0.000202388      1.12862      119.735 
0.000211927      1.98475      102.223 
0.000645786     0.161670      29.7779 
0.000275746      1.03279      121.542 
7.08103e-05     0.965599      103.161 
0.000703959     0.362375      83.6991 
0.000320610      1.14625      119.233 
0.000274845      2.51408      111.465 
0.000138486      1.17320      119.631 
0.000136576      2.85738      105.007 
0.00192618     0.184676     -40.5508 
0.000201793      2.95914      103.282 
6.84937e-05      1.98055      101.651 
6.83347e-05     0.961344      102.029 
0.000129958      2.72962      100.982 
0.000260918      2.29894      111.423 
6.75902e-05      1.19085      119.149 
0.000515024      1.95742      101.185 
0.000473922     0.727252      97.8876 
0.000322324      1.21844      119.517 
0.000129470      2.74952      100.902 
6.61911e-05     0.957327      100.843 
6.59690e-05      2.73231      107.898 
0.000190718      1.01558      122.140 
0.000127264     0.540658      87.8524 
0.000256524      2.49593      111.629 
0.000251082      1.20401      94.7547 
0.000791006      1.04313      122.455 
0.000128586      2.87695      104.903 
0.000125053      2.36938      101.694 
0.000305238      2.97886      103.193 
0.000179376      1.22602      95.6199 
0.000233471      1.22420      94.6761 
6.20768e-05      2.81471      109.077 
0.000348468      2.30641      111.891 
0.000407276      1.23546      119.072 
0.000118686      2.88223      105.292 
0.000120239      2.52156      111.893 
0.000348682      1.93382      100.734 
0.000118519      2.82140      109.466 
5.96228e-05      3.14825      103.592 
0.000170846     0.560155      87.9272 
0.000363788      2.74576      100.487 
5.87923e-05      3.00252      103.484 
0.000170840      2.38449      101.123 
0.000171516      3.16795      103.506 
5.80088e-05      2.47711      111.801 
0.000217528      2.50347      112.060 
0.000606304     0.178866      26.6725 
0.000112555      2.84632      109.706 
0.000319289      1.62076      99.2181 
0.000215192      3.18692      103.424 
0.00122498     0.212689     -41.2810 
0.000349453     0.541740      85.7900 
0.000190367      2.98355      103.571 
0.000105909      2.25618      102.798 
0.000211212      2.85322      110.089 
0.000107483      1.18309      93.8914 
5.42943e-05      2.03938      101.310 
0.000153795      2.45831      111.977 
0.000405092      1.25320      118.621 
0.000155263      1.91392      100.847 
0.000350230      2.31404      112.357 
0.000103533      2.06329      101.751 
0.000101956      2.38067      100.644 
0.000149795      1.16165      92.9622 
0.000463117      2.87923      110.329 
0.000100960      3.19169      103.778 
5.09112e-05      1.24544      95.5320 
0.000197350      3.29514      102.267 
0.000404697      1.02609      123.063 
4.99794e-05     0.996416      100.413 
0.000280888      1.64076      99.1048 
9.45301e-05      2.90105      105.190 
4.90071e-05      2.25194      102.313 
0.000185319      1.89101      100.356 
0.000370476      3.17274      103.862 
4.82324e-05      2.40058      100.555 
0.000269402      2.48470      112.235 
4.79529e-05      3.00731      103.859 
0.000137757      2.05926      101.199 
4.76765e-05     0.724832      96.3598 
8.74384e-05      1.08889      97.4042 
0.000130969      2.23215      102.424 
9.12932e-05      1.16078      91.9634 
0.000134343      3.31928      102.534 
0.000134485      2.39709      100.096 
0.000304512      1.27103      118.184 
0.000173606      1.44345      93.9647 
0.000300765      2.32154      112.802 
8.86687e-05      1.06954      97.5389 
0.000108289     0.998483      122.759 
8.84916e-05     0.216445      33.6901 
8.81915e-05      3.34260      102.788 
8.71201e-05     0.543603      83.6598 
0.000123337      2.90622      105.561 
0.000250756      3.30180      107.990 
0.000168025     0.743162      113.822 
0.000836248      2.74227      100.086 
8.25869e-05      1.89476      100.958 
4.30740e-05     0.839927      88.6178 
0.000664387      3.63854      103.343 
0.000354668      2.07913      101.091 
0.000164243     0.288454      33.6487 
0.000231615      2.51086      112.472 
0.000576187      1.64409      99.8020 
4.21641e-05      1.14002      91.0183 
0.000120474      3.20101      109.344 
0.000270357      2.39362      99.6188 
8.02374e-05     0.702680      94.9008 
0.000123043      1.87109      100.467 
0.000119280      1.13984      90.0000 
4.09257e-05     0.523472      83.4149 
0.000230776      1.28826      117.774 
0.000189604      2.88606      110.692 
0.000250917     0.526180      81.2228 
0.000287620      2.32946      113.262 
0.000179318     0.725357      114.444 
0.000110607      1.42324      94.0210 
3.89034e-05     0.800901      87.1537 
3.87014e-05      2.52890      112.303 
0.000219487     0.304887      31.6167 
0.000110174      3.31495      102.193 
3.83921e-05      2.30287      112.998 
0.000112000      1.87487      101.076 
0.000213343      3.32664      108.218 
0.00165601      3.96811      103.406 
0.000144750      1.14002      88.9817 
0.000210671      3.18190      109.465 
3.73992e-05     0.170734      20.5855 
0.000101610      2.63580      101.828 
3.68960e-05      2.20879      102.020 
0.000102351      1.09157      98.4198 
0.000610557      1.12141      121.148 
3.59913e-05     0.701240      93.2513 
0.000134761      2.55536      112.551 
3.58415e-05      1.29746      118.536 
0.000334139      1.10476      121.671 
6.94759e-05      1.94502      104.889 
3.50678e-05     0.802162      85.7082 
3.50638e-05      2.21310      102.533 
6.94321e-05      1.30622      117.360 
6.30233e-05     0.751254      115.183 
0.000254713      2.39032      99.1400 
0.000189887      2.91220      110.924 
3.42471e-05     0.365154      80.5377 
3.39046e-05      3.29090      101.922 
0.000278717     0.322315      29.7283 
0.000249950      1.31530      118.115 
3.35737e-05     0.781960      85.5971 
0.000188447      1.14053      88.0017 
3.32650e-05      1.92120      104.476 
0.000259635      1.64766      100.496 
3.29084e-05     0.680152      91.7070 
9.44210e-05      3.28692      101.590 
0.000184448      1.92617      105.038 
6.46689e-05      3.34589      108.110 
0.000125131      2.35610      113.520 
5.92037e-05     0.184432      12.4530 
0.000175288      1.89893      113.597 
6.14501e-05      2.18898      102.130 
0.000206346      3.18846      109.795 
6.15643e-05     0.660651      91.7574 
0.000112222      1.42200      93.2369 
0.000142052     0.733645      115.831 
3.11896e-05      2.49215      112.650 
8.91319e-05     0.764371      83.9704 
5.95677e-05      3.37076      108.334 
3.07146e-05     0.340529      86.5891 
0.000299148      1.62957      119.398 
0.000117822      2.58186      112.794 
5.93727e-05     0.509625      78.7066 
5.98942e-05      3.38999      108.226 
3.00781e-05      1.11162      98.2668 
8.22551e-05     0.982133      123.374 
8.11721e-05      2.65563      101.739 
2.92159e-05      3.45417      107.171 
0.000138672      2.38180      113.763 
8.38901e-05      3.28291      101.243 
0.000211837      1.14142      86.9852 
0.000133679     0.319665      90.0000 
0.000326745      2.38730      98.6777 
2.82859e-05      2.86793      105.774 
0.000221344      2.09828      100.988 
8.03045e-05      1.11471      99.2975 
8.10798e-05      3.47281      107.076 
0.000226137      2.76222      100.012 
0.000134923      1.93153      105.618 
0.000257023     0.954085      123.028 
2.79335e-05     0.640080      90.0000 
8.05563e-05      2.93768      111.157 
2.76557e-05     0.495028      75.9638 
8.11468e-05      3.41536      108.431 
0.000197453      2.60743      113.023 
2.72490e-05      1.32424      116.957 
5.35890e-05     0.746582      82.3178 
0.000238595     0.340058      28.0353 
2.67753e-05      2.86269      105.399 
0.000101970      3.27902      100.896 
0.000209128      1.33320      117.704 
7.60405e-05     0.513977      76.4913 
0.000175324      3.16940      109.919 
2.59300e-05      3.43388      108.328 
5.10627e-05     0.915694      121.632 
5.05967e-05     0.749560      80.7829 
9.94353e-05      2.40853      114.010 
0.000496307      2.84316      105.507 
0.000210417      1.90661      105.196 
7.45785e-05      3.44030      108.648 
4.81074e-05      2.96364      111.368 
0.000313533      1.90682      114.134 
4.82391e-05     0.733911      78.9773 
2.39826e-05      3.15308      103.950 
4.75074e-05      3.51853      110.290 
0.000112391     0.300838      93.8616 
2.39008e-05      2.94478      111.511 
0.000111589      1.13810      100.139 
9.10228e-05      3.27539      100.561 
0.000174391      2.39003      114.207 
0.000172502      1.12476      84.9094 
0.000194602     0.706962      115.123 
9.65649e-05      2.12209      101.421 
8.96500e-05      3.47882      107.395 
4.56062e-05     0.500328      73.7123 
2.29155e-05     0.718124      77.1400 
0.000110501      1.67120      101.027 
6.72585e-05      3.52534      110.587 
6.61023e-05     0.708758      73.5796 
0.000122286      2.97108      111.732 
4.17512e-05      1.44223      93.1914 
0.000308738      2.38432      98.1964 
2.15376e-05      3.13342      104.040 
0.000210429      3.55075      110.783 
6.24945e-05     0.695981      71.5846 
0.000252416      2.63402      113.256 
3.97096e-05      1.28157      92.6848 
0.000119041      3.27174      100.212 
0.000475419      3.49816      107.296 
0.000311944      1.91202      105.782 
2.05618e-05     0.506146      71.5919 
3.23351e-05      1.66758      100.369 
0.000124604      2.11818      100.884 
0.000190043     0.357396      26.5651 
0.000161683      1.14170      101.103 
0.000251995     0.302778      97.5477 
3.92168e-05      3.11449      104.127 
7.79599e-05     0.683639      69.4366 
0.000122495    0.0600310      180.000 
7.56858e-05      2.37225      114.400 
1.94740e-05     0.486965      70.8391 
1.93959e-05      1.34274      118.470 
1.92900e-05      1.64725      119.052 
0.000137822      1.12674      83.8831 
1.88927e-05      1.88199      104.784 
0.000215147      1.65719      119.664 
0.000107888      3.17636      110.263 
0.000412726     0.690733      67.9212 
3.64460e-05      1.35498      121.111 
1.83741e-05      3.09485      104.218 
0.000140373      2.87498      101.228 
1.81860e-05      1.46149      92.3541 
0.000133701      1.80454      102.805 
0.000160929      3.26821      99.8624 
0.000159321      2.39841      114.649 
1.76696e-05      2.99742      111.948 
1.76370e-05     0.493986      68.6188 
1.74444e-05      1.59554      97.9205 
5.04858e-05      1.36556      121.839 
1.71590e-05      1.46079      91.5601 
3.31620e-05      2.97864      112.094 
3.02576e-05      3.33303      108.549 
1.67740e-05      1.52080      91.4985 
1.66079e-05      1.13203      122.026 
4.64322e-05      3.11931      104.474 
4.52118e-05      3.65753      103.272 
0.000233954      3.55799      111.088 
6.33733e-05      1.52042      90.7635 
9.62193e-05      2.82437      105.613 
1.62012e-05      2.41684      114.448 
8.68568e-05      2.11444      100.345 
1.60407e-05     0.475177      67.7281 
0.000363169      2.38152      97.7139 
3.11517e-05     0.612215      51.6692 
4.62838e-05      1.37596      122.529 
7.42377e-05      3.00477      112.293 
0.000304257      1.14577      102.097 
0.000168434     0.688672      115.839 
0.000144914     0.201375      5.77433 
2.95037e-05      1.12908      82.8608 
0.000201200      3.51750      107.198 
5.76446e-05     0.624982      50.2120 
8.45134e-05      1.52028      90.0000 
8.30358e-05      1.38695      123.234 
0.000330835      8.45339      105.645 
0.000154025      3.26492      99.5251 
7.53999e-05    0.0828082      165.838 
0.000118766      3.97285      103.690 
7.65434e-05      1.11162      81.7332 
0.000100130      3.09970      104.568 
3.97351e-05      2.38069      114.845 
4.98587e-05      3.15807      110.386 
3.85783e-05      2.11103      99.8239 
7.60758e-05     0.623033      47.5871 
6.23476e-05      3.01252      112.650 
1.33614e-05     0.465536      64.5089 
6.86578e-05      2.72233      100.161 
8.12115e-05      1.08757      122.232 
2.53902e-05      1.50016      89.2262 
2.50973e-05      2.33541      114.811 
8.40715e-05      1.39774      123.903 
3.67817e-05      3.71072      101.194 
1.26767e-05      1.38053      91.6508 
3.51776e-05     0.375627      25.1828 
1.23474e-05      1.73737      101.965 
0.000226287      3.99254      103.621 
2.40372e-05      1.52042      89.2365 
2.83145e-05      8.81062      105.268 
1.20417e-05      8.83532      105.356 
0.000127248     0.240790     -41.5891 
1.18952e-05      2.40661      115.071 
6.44285e-05      1.66693      120.247 
5.48603e-05      2.10767      99.2812 
0.000425555      8.83017      105.234 
3.82348e-05     0.456404      61.2016 
8.60271e-05     0.636355      46.2900 
2.26517e-05      2.64209      113.660 
6.44847e-05      1.50055      88.4813 
2.27872e-05      2.36232      115.051 
4.31169e-05      3.71456      101.489 
1.13658e-05      1.36028      91.6754 
0.000132636      3.56506      111.380 
9.30599e-05      6.81039      100.321 
6.99636e-05      1.11471      80.7025 
0.000108385      1.40914      124.587 
9.09811e-05      3.02038      113.004 
2.11562e-05      1.88707      105.357 
2.12920e-05     0.101837      168.524 
5.86404e-05      2.37898      97.2483 
3.16888e-05      2.34399      115.261 
0.000252026      9.48486      103.040 
3.99570e-05      2.10449      98.7368 
0.000157575      4.92696      108.211 
0.000233021      4.94549      108.141 
0.000283455      7.21306      101.838 
7.29099e-05     0.698601      66.3812 
0.000231129      2.35888      97.3104 
0.000117776     0.609552      131.007 
3.80618e-05      2.38896      115.269 
0.000259677      6.27955      124.095 
0.000199059      1.16903      102.832 
0.000119940      1.88835      114.386 
6.40527e-05     0.650520      45.0000 
2.87100e-05      1.48098      87.6769 
0.000127733      8.44815      105.518 
6.67967e-05      1.82885      103.284 
0.000144599      1.07049      122.810 
0.000257516      3.99718      103.893 
0.000123286      7.21724      101.996 
0.000134283      9.16518      107.526 
3.66234e-05      6.11141      107.131 
1.83974e-05      2.10162      98.2111 
2.49432e-05     0.394056      23.9293 
0.000119581      2.20302      119.350 
8.23548e-05      1.48194      86.8942 
9.03468e-06      1.85802      104.334 
3.42799e-05      3.02805      113.344 
8.95506e-06      2.83781      105.113 
0.000150368     0.269397     -41.9516 
3.38882e-05      6.80679      100.153 
2.57027e-05      2.11890      97.5906 
0.000113289      6.13581      107.252 
4.40745e-05     0.662354      114.997 
8.78034e-06      1.64946      120.602 
0.000154851      1.40425      125.737 
2.83097e-05      3.26163      99.1741 
8.50489e-06      9.14658      107.562 
5.07277e-05      2.37065      115.478 
2.47812e-05      1.36017      114.303 
8.41610e-06      1.09824      79.4886 
1.65848e-05     0.322129      97.0919 
9.26060e-05      9.15271      107.683 
5.44480e-05     0.665001      43.7656 
0.000190648      3.52732      97.1613 
1.55856e-05      3.07521      104.311 
0.000179716      4.16233      105.036 
3.15595e-05      3.52355      107.513 
8.60819e-05      1.10196      78.4911 
8.14135e-06      2.10224      101.531 
5.04343e-05      9.20138      101.406 
4.73837e-05      1.35226      113.549 
0.000112185      6.20318      112.759 
3.62087e-05      3.00946      113.497 
0.000111231      6.91208      100.332 
0.000105195      6.29572      123.995 
7.75691e-06      2.11632      97.0469 
4.13625e-05      3.30811      108.324 
7.70445e-06      2.73880      99.6688 
4.91574e-05      1.64321      121.556 
6.96503e-05      1.98037      90.5862 
0.000288082      5.72227      121.858 
2.87187e-05      1.62774      100.626 
0.000103366      6.44896      100.546 
3.78064e-05     0.624982      129.788 
4.23312e-05      6.22902      112.861 
2.15503e-05      8.45024      103.972 
0.000171402      9.17130      107.646 
2.14743e-05      2.71883      99.7405 
6.82792e-05      8.43388      105.682 
0.000296625      8.00312      99.2044 
1.41849e-05     0.679173      45.0000 
0.000173260      6.11718      107.306 
1.38516e-05      1.46366      86.0902 
0.000102208      3.28888      108.435 
0.000531017      8.35475      99.5072 
2.74423e-05      4.61811      118.451 
0.000168323      6.49235      113.804 
6.87578e-06     0.679225      42.6271 
1.35589e-05      8.46432      103.807 
3.91952e-05      1.48312      86.1416 
3.86998e-05     0.693106      43.8595 
4.15628e-05     0.412159      150.915 
0.000201332      4.63528      118.337 
1.21014e-05      4.93333      108.435 
0.000290843      6.55839      112.028 
1.90116e-05      2.96386      103.663 
5.77916e-05      1.65132      101.162 
0.000228521      8.41890      107.705 
2.76203e-05      3.57249      111.683 
3.08219e-05      8.45951      103.674 
2.37081e-05      3.05631      104.401 
0.000244253      1.18880      102.615 
6.41261e-06     0.457182      66.8014 
2.40843e-05      1.80016      102.176 
7.28197e-05      6.29093      124.247 
1.24222e-05      3.01760      113.850 
6.31345e-06     0.411965      22.8286 
0.000193051     0.283342     -45.0000 
0.000125408      6.30707      124.148 
4.77765e-05      4.15731      104.776 
2.85424e-05     0.682496      95.0461 
0.000111649      4.62570      118.116 
0.000102500      9.20541      101.530 
0.000131026     0.707854      42.7231 
4.47337e-05      1.62598      121.930 
2.14520e-05      2.98837      103.949 
5.86123e-06      2.84758      100.522 
2.66724e-05      2.99908      114.006 
2.18857e-05      8.47461      103.513 
5.63080e-06     0.461573      72.3015 
8.73323e-05      3.01204      104.220 
5.07914e-05      6.57370      113.677 
5.50601e-06     0.672002      112.728 
1.07616e-05      1.78109      102.309 
1.56494e-05      1.42074      125.260 
3.19240e-05      1.08160      123.712 
2.14761e-05     0.430710      21.7829 
8.41582e-05      2.21302      119.808 
4.99359e-05      1.10618      77.4628 
1.03287e-05      1.41573      126.378 
1.50441e-05     0.455823      74.7283 
1.48367e-05      4.95184      108.364 
8.42033e-05      6.46521      100.337 
5.21192e-06      2.82474      100.190 
4.79160e-05      6.93201      100.302 
6.40844e-05      4.53662      110.113 
7.40639e-05      8.48961      103.348 
3.43511e-05      5.69437      121.792 
1.28960e-05      1.75720      101.828 
9.69658e-05      4.92363      104.826 
5.33126e-05     0.429314      152.181 
1.98004e-05      5.62171      120.577 
4.99953e-06      1.67520      101.708 
2.30556e-05      2.78144      99.9426 
0.000132253      1.43209      125.897 
4.94402e-06      4.92108      109.471 
0.000113241      6.47382      113.876 
3.16489e-05      1.77703      101.694 
8.59213e-05      3.52494      96.8466 
6.26573e-05      5.62929      120.301 
6.44593e-05      9.48031      102.921 
9.37989e-06      8.43938      105.815 
9.53344e-06      5.61181      120.405 
0.000105868      6.59157      113.609 
1.80044e-05     0.684575      96.7355 
2.94426e-05      1.88038      113.844 
1.35847e-05      1.65536      101.850 
4.67098e-06      1.38127      92.4909 
5.13452e-05      5.70507      121.965 
7.87733e-05      1.98027      90.0000 
6.60254e-05      6.12324      107.487 
4.55123e-06      3.00707      114.346 
1.32246e-05      6.88866      100.202 
1.68234e-05      2.75877      99.5981 
4.08800e-05      1.40252      93.2819 
1.27494e-05      8.41989      105.852 
5.70146e-05      6.30193      124.394 
1.64189e-05      2.98930      114.500 
1.64313e-05     0.683639      110.563 
4.10808e-05      6.08258      119.772 
8.49532e-06      4.92762      109.685 
3.24201e-05     0.438632      155.759 
4.20185e-06      3.55437      111.799 
4.18128e-06     0.450910      77.2126 
8.21911e-06      3.03669      104.496 
4.31381e-05      3.93393      108.069 
0.000101935      5.61910      120.123 
1.95547e-05      6.90860      100.172 
9.43400e-05     0.310934     -45.0000 
1.15408e-05      4.94670      109.606 
1.58892e-05      6.59971      113.770 
3.35440e-05     0.449587      20.8247 
2.27714e-05      5.71542      122.131 
7.70013e-06     0.665204      96.9326 
1.51264e-05      2.77801      99.5310 
4.47059e-05      6.10017      119.678 
7.62607e-06      3.56194      112.102 
7.57408e-06      5.60158      120.227 
4.01069e-05      9.49933      102.895 
2.86843e-05      8.46990      103.380 
0.000128666      7.99991      99.0612 
0.000500596      7.72827      111.718 
0.000135343      5.17793      110.815 
9.28385e-05     0.466942      80.0987 
8.95469e-05      7.20908      101.687 
7.71989e-06      2.36123      116.133 
3.46563e-05      3.01548      114.696 
3.44952e-05      2.80140      99.8711 
2.17803e-05      2.37944      115.919 
4.11010e-05      1.06543      124.294 
7.46743e-06     0.664707      111.177 
1.41484e-05      1.38230      93.3299 
3.37060e-05      1.75316      101.180 
2.08987e-05      1.09662      75.2125 
3.31971e-05      6.19566      112.593 
6.00602e-05      6.31804      124.294 
2.07770e-05     0.638138      131.186 
4.58919e-05      5.68789      122.073 
5.21493e-05      9.17843      107.367 
3.91169e-05      3.31454      108.656 
1.97039e-05      8.37182      100.181 
3.90662e-05      8.48496      103.215 
4.53251e-05      6.11778      119.584 
3.81581e-05      6.55109      111.870 
3.75890e-05      4.64358      117.998 
2.50658e-05      8.42485      107.831 
1.87279e-05      1.40377      94.0769 
2.45707e-05      4.94322      104.766 
2.45418e-05      5.22007      120.886 
1.81460e-05      2.22316      120.261 
1.21426e-05      1.08248      73.9018 
6.12663e-06      7.11841      99.5447 
1.19837e-05      6.32948      124.446 
1.18867e-05      5.60896      119.944 
5.99528e-06      4.18717      105.232 
0.000729203      8.75953     -29.5495 
0.000492346      13.1545     -46.1071 
-0.000102305      10.8505     -54.3776 
0.000485324      9.12429     -96.7966 
0.000194316      10.4907     -114.317 
-0.000436435      10.8623     -54.2907 
-0.000355272      10.6799      27.1880 
0.000309656      9.64529      10.6342 
-0.000530944      10.1923     -113.596 
-0.000259313      10.3434     -171.884 
0.000316198      6.14784     -71.7995 
0.000288991      8.57961     -49.2525 
0.000284319      9.68677     -62.8534 
4.52286e-05      8.41227     -112.356 
0.000242292      13.3519     -44.0300 
0.000360814      6.31467      40.2476 
0.000288262      9.11585     -103.059 
0.000168081      8.81128      19.2173 
0.000276642      10.4806     -114.464 
-0.000348424      10.2430     -82.7105 
-0.000341532      8.88790     -53.2307 
-0.000268523      11.8545     -123.021 
0.000376932      13.1827     -46.1070 
-8.18489e-05      6.02703     -113.673 
-0.000188669      9.25517     -132.901 
-0.000301573      11.1464     -152.426 
-0.000193199      8.57013     -72.1965 
-0.000446835      9.87932     -77.3688 
-0.000188499      12.2360     -46.2598 
-8.17178e-05      11.3931     -28.6346 
-0.000116612      13.8083     -43.3551 
0.000157001      11.9688      35.2036 
0.000403644      12.2870     -56.2837 
0.000223939      11.3600     -53.2308 
-0.000112928      8.38301      94.2402 
0.000149107      6.63106     -7.10491 
0.000116881      8.04976      26.8851 
-0.000149252      6.91623     -118.119 
0.000255594      9.48046     -162.063 
-0.000260128      11.7972      54.8017 
7.87297e-05      4.22306     -50.9570 
0.000214877      9.82736      118.704 
-0.000181153      11.2542      25.4716 
0.000175277      8.73192     -29.4994 
7.42766e-05      8.80138     -26.7376 
-0.000211605      10.6710      27.0948 
0.000146411      5.14030     -179.557 
7.08630e-05      1.30350     -4.39112 
-0.000178100      4.95946     -147.017 
0.000142626      8.82971      19.1756 
0.000142550      9.20405     -84.3903 
-0.000106445      9.94477     -88.1580 
0.000177336      4.19457     -50.9976 
0.000105025      6.69591      52.8887 
-7.11826e-05      11.3838     -28.5484 
-3.68765e-05      4.27192      94.2914 
0.000137716      12.1594     -123.323 
0.000137527      8.44275     -15.3851 
-0.000104483      9.80947     -157.460 
-0.000206424      7.46057      59.3802 
0.000137715      12.7640     -53.3443 
3.57609e-05      9.66149      10.4939 
0.000101388      10.1731     -85.3757 
6.78900e-05      11.9853      35.1478 
-6.91388e-05      10.3221     -139.086 
0.000101800      9.12045     -103.183 
-6.88834e-05      4.49366     -28.7349 
-0.000101595      9.66036     -52.6574 
6.74588e-05      7.42746      82.2604 
-3.45884e-05      6.03519     -113.850 
-3.45992e-05      10.0358      116.006 
-6.77758e-05      10.9956      55.2992 
-6.71288e-05      11.3214     -129.624 
6.69042e-05      7.80202     -105.462 
0.000100499      6.31759      39.9938 
3.40908e-05      8.81881     -26.6806 
7.60280e-05      11.0071      128.954 
6.69734e-05      8.14400      61.5459 
6.66636e-05      5.14050     -179.331 
6.63304e-05      6.23468     -156.561 
-6.60068e-05      8.56395     -72.3255 
-3.36545e-05      8.68424     -88.1530 
-3.34930e-05      5.52979     -14.2342 
-3.32914e-05      4.25172      94.3118 
3.31493e-05      7.65690     -15.4541 
3.31711e-05      13.3806     -44.0321 
-3.30978e-05      8.12657      163.709 
3.29338e-05      10.0879     -71.7456 
-3.28933e-05      8.48713     -60.9557 
3.27166e-05      6.45418      5.87233 
3.27046e-05      7.08372     -162.078 
3.23470e-05      7.26539     -177.792 
-3.23092e-05      6.96860     -141.058 
0.000240088      8.59182     -10.0547 
-3.21366e-05      11.2998     -135.215 
-0.000113278      11.3450     -136.286 
-0.000272227      8.15933      16.0815 
-0.000131673      11.2854     -135.143 
-0.000238589      9.50244      178.674 
0.000131274      8.88444     -15.5399 
0.000106752      12.6097     -38.5613 
-5.40133e-05      11.1320     -136.237 
0.000262245      9.68015     -31.6546 
0.000144644      9.61524      63.1670 
-0.000165618      6.38156      161.738 
2.68233e-05      8.32064      33.7288 
-2.67207e-05      5.78474     -97.1536 
0.000208619      8.04420     -98.2919 
-0.000189302      11.0198     -50.9642 
0.000111978      11.7712      33.9869 
4.88873e-05      6.05056     -67.2511 
-4.87993e-05      5.78225     -96.9544 
-0.000163866      6.65198     -52.8212 
-2.46064e-05      9.73246     -51.3416 
0.000184007      9.33595     -136.215 
2.42336e-05      8.33749      33.6515 
0.000150219      12.0256      123.744 
-0.000158710      9.74513     -51.2486 
-6.31893e-05      7.08821      127.550 
-8.44726e-05      12.0822     -129.221 
0.000205652      12.5939     -38.6188 
9.15590e-05      11.7544      34.0421 
-4.36710e-05      11.5524     -126.554 
-0.000100279      9.52270      178.677 
-4.24491e-05      10.6232      55.7431 
3.76492e-05      8.86023     -15.4475 
-0.000262413      10.6350      134.694 
-0.000173948      10.8781      145.639 
9.87926e-05      7.33522     -111.597 
-5.91476e-05      8.63420     -40.9615 
-9.28741e-05      9.61483     -7.16883 
2.09652e-05      6.06925     -67.3251 
-5.71872e-05      6.95104     -17.7562 
-0.000245045      9.65944      32.5716 
-8.60408e-05      9.52319      178.555 
-7.38865e-05      11.7908      132.596 
7.04203e-05      9.24535     -32.0054 
7.49821e-05      9.62421      63.3291 
-3.90413e-05      11.3592     -136.354 
-3.76161e-05      3.31515     -109.752 
-5.80742e-05      6.84387      162.306 
0.000138824      13.6633      42.2132 
-5.50612e-05      11.5403     -126.473 
-3.65357e-05      10.6531     -138.349 
7.32909e-05      11.0992      125.465 
-1.98032e-05      9.91019      39.9256 
-1.97610e-05      11.2716     -135.073 
-3.83016e-05      3.70593     -65.7807 
0.000218531      10.1824     -61.8731 
-0.000172438      8.96057      89.6161 
0.000136296      9.83462     -111.974 
-7.45565e-05      10.4740     -112.453 
-0.000165703      12.3475      135.852 
7.22562e-05      8.04714     -98.4346 
1.92373e-05      9.34667     -33.6556 
-3.69921e-05      6.36232      161.680 
3.66629e-05      9.82706     -111.864 
-8.50159e-05      11.6889      47.0785 
-0.000132087      5.09427      57.9955 
5.19389e-05      4.00744     -48.0359 
-8.27708e-05      7.40098     -173.953 
5.06157e-05      9.35791     -33.7589 
-6.57435e-05      12.0666     -129.281 
5.26495e-05      10.7370     -22.2200 
-1.81007e-05      11.0399      55.3302 
-8.82149e-05      9.59305     -7.06776 
-9.55661e-05      11.1045     -46.3854 
0.000120174      10.1510      18.6144 
-3.43951e-05      11.2286     -135.000 
-0.000113937      6.86318      162.357 
0.000110847      11.5991     -33.9656 
-0.000121659      10.2095     -92.4685 
0.000100625      9.45921      113.423 
-0.000121200      7.96255     -32.1714 
4.76717e-05      7.15206      174.545 
-6.55294e-05      6.35022      161.452 
9.02628e-05      7.75443     -108.810 
-0.000106544      3.71398     -65.5062 
1.71811e-05      12.0369      123.824 
0.000112747      8.47194      156.339 
-1.70289e-05      5.28450      100.249 
-0.000120302      10.8896      145.551 
0.000120747      11.2329     -41.7505 
-3.27968e-05      10.4663     -112.351 
0.000115024      7.32537     -177.810 
-6.18657e-05      10.8187     -112.155 
7.36033e-05      9.86036     -109.060 
9.02860e-05      8.06425     -98.2711 
3.18897e-05      7.32779     -111.449 
-8.86484e-05      6.68036     -52.7877 
1.64206e-05      5.32324      159.322 
-0.000229870      9.92399     -123.659 
-4.43288e-05      8.31214     -107.213 
7.33140e-05      7.76641     -108.622 
8.33944e-05      9.63332      63.2214 
-0.000161771      10.1128      58.2582 
0.000112502      10.7113     -22.1592 
0.000141821      11.2025      61.8815 
-7.45697e-05      5.75715      140.782 
-5.91156e-05      11.5484     -125.340 
-3.00455e-05      7.84082     -142.251 
-2.78489e-05      6.97034     -17.7054 
0.000208336      3.52599      50.9860 
-1.56592e-05      8.05703      67.0600 
-0.000137358      11.7038      47.1461 
0.000104999      6.61338      79.3684 
-3.05696e-05      11.9159      147.054 
-2.92888e-05      11.2148     -134.930 
-4.12437e-05      12.1470      132.331 
-5.59394e-05      5.80697      17.4375 
4.31580e-05      13.3434      46.8823 
-0.000197664      8.94031      89.6153 
0.000154823      6.49534     -166.648 
0.000367691      13.6783      42.1561 
-1.47258e-05      6.88684     -92.4980 
-1.46955e-05      10.4325     -112.191 
-0.000260480      10.1038      168.467 
-0.000105549      11.9265      146.976 
7.92198e-05      5.57991      146.252 
6.64975e-05      8.44137     -20.2359 
-9.04133e-05      9.83729     -171.936 
-6.76341e-05      12.8365      142.470 
-0.000119124      6.88177      162.407 
-2.77226e-05      4.91399     -76.5876 
-0.000231865      9.46299     -99.2450 
-0.000140847      13.6342      135.832 
-5.33845e-05      6.33101      161.393 
-1.43566e-05      5.28801      100.457 
-0.000121654      9.37483      146.750 
-2.72748e-05      10.4183     -169.379 
-2.77036e-05      8.71930     -3.81440 
4.04825e-05      6.81954     -43.3369 
1.40016e-05      5.96694      159.806 
3.83224e-05      7.45961      16.8345 
7.31577e-05      10.1728     -61.9738 
7.30017e-05      13.3420      46.7617 
0.000138814      4.57525      22.0806 
-2.49625e-05      5.08357      58.1892 
-3.84178e-05      5.74147      140.654 
-1.33786e-05      5.26456      100.288 
-3.78812e-05      9.34009      179.876 
-2.56309e-05      10.3918     -111.925 
-4.97509e-05      8.69909     -3.82328 
-2.54942e-05      6.88772     -92.6601 
7.08018e-05      11.5823     -34.0216 
-4.95573e-05      4.24478     -109.540 
0.000127799      13.7037      137.601 
-3.83236e-05      10.8263     -112.254 
-8.23846e-05      11.2752     -39.8188 
-6.28727e-05      3.72242     -65.2224 
-2.33772e-05      11.0340      55.5599 
7.68744e-05      13.1175      43.0853 
1.28121e-05      8.09248      159.907 
-4.86185e-05      12.8211      142.416 
2.49024e-05      9.87629     -131.470 
-0.000121324      10.4219     -169.273 
7.51056e-05      10.3159      16.3284 
2.49103e-05      11.2475     -41.6843 
2.50418e-05      6.35453      79.1160 
3.66799e-05      9.78261     -69.7886 
-0.000300943      9.57295     -7.08268 
5.89111e-05      9.80294     -113.060 
-5.87291e-05      9.47420     -108.590 
-3.58247e-05      11.5367     -125.258 
3.63955e-05      10.8363     -52.8746 
1.24173e-05      8.96277      58.9704 
-0.000196681      11.8975     -38.5831 
2.32912e-05      8.32682      158.733 
-6.62168e-05      8.82716     -73.4137 
-1.22786e-05      5.26808      100.497 
-2.30088e-05      12.0924      139.830 
0.000118920      11.2106      62.0164 
-8.97420e-05      7.61234     -34.9402 
8.76293e-05      6.24343     -91.8390 
6.61674e-05      4.35608     -13.2750 
0.000152844      10.7140      124.963 
-5.26638e-05      12.4410     -128.474 
-3.26220e-05      9.36304      44.1363 
1.20836e-05      9.21744     -31.9653 
-5.41351e-05      7.38158     -173.937 
2.33944e-05      8.06650      159.992 
-1.20428e-05      11.2005     -134.856 
-3.39451e-05      4.17945     -65.3951 
-2.36170e-05      10.2104     -92.5821 
-0.000165723      11.7171      142.211 
-2.27976e-05      2.81921      68.3515 
2.29002e-05      8.96602      58.6859 
2.33431e-05      10.1702      18.5780 
-1.18358e-05      7.89207      103.931 
3.23365e-05      9.78920     -84.2544 
-0.000375731      11.9109     -32.7289 
-0.000107852      12.1805     -52.4714 
-1.17151e-05      10.3843     -111.821 
-2.31318e-05      11.6697     -131.945 
-9.62891e-05      11.9435      147.029 
5.60240e-05      8.45794      45.9562 
-4.53745e-05      6.88792      162.246 
-1.16894e-05      5.75386      140.503 
1.16972e-05      10.8274      125.451 
3.36868e-05      11.0424      48.8932 
6.58974e-05      8.89204      53.4134 
1.16367e-05      6.37004      79.3215 
1.15860e-05      10.2590      14.3351 
-2.28174e-05      6.30408      88.0013 
2.23334e-05      9.23288      60.5474 
1.15801e-05      10.6047      127.259 
-6.65664e-05      10.8802      58.5320 
-0.000174733      9.85735     -171.953 
-1.14984e-05      6.69264     -52.6496 
1.14803e-05      10.7993      64.9040 
2.25483e-05      8.80531      105.141 
-2.25622e-05      12.4373     -128.602 
-9.55944e-05      10.9485     -126.682 
-1.14153e-05      6.31181      161.335 
2.22646e-05      7.44022      16.8797 
-1.13659e-05      9.12632     -72.0016 
-1.13049e-05      11.1724     -134.853 
2.22722e-05      7.84430     -23.7549 
-5.32518e-05      10.6119     -129.572 
7.35182e-05      12.9123      134.435 
9.30180e-05      9.78962     -69.6773 
-6.54079e-05      11.8250     -53.9446 
-0.000215268      13.6203      135.775 
-0.000109236      7.83284      68.7398 
-6.40881e-05      10.3655     -111.863 
-2.19511e-05      12.7931      142.430 
4.06631e-05      11.0557      48.8141 
1.11770e-05      10.6004      127.409 
-2.19324e-05      10.0481      99.8555 
-2.19544e-05      11.1185     -136.310 
-1.11141e-05      10.6352      134.545 
-0.000128580      14.1710      134.429 
-4.22656e-05      8.61508     -72.5751 
-1.10604e-05      5.60510      132.683 
3.23138e-05      5.87517      42.3756 
-3.14634e-05      8.91379      144.311 
0.000113414      11.4543      123.608 
2.15093e-05      9.64945      16.7453 
5.31002e-05      11.6855      140.835 
2.15535e-05      10.7907      65.0014 
-6.32834e-05      11.5414     -125.123 
9.20533e-05      10.9943      128.872 
-1.08829e-05      7.43011     -172.111 
-1.08765e-05      6.91318      162.143 
-1.08297e-05      5.56643     -87.3266 
6.33896e-05      10.7598      67.4840 
-7.03856e-05      9.31983      179.875 
-6.22841e-05      12.4500     -128.675 
4.12015e-05      8.98203     -25.3084 
-0.000128278      10.1911     -92.7010 
0.000152591      14.0437      44.7121 
-1.07318e-05      6.30343      88.1786 
3.07826e-05      11.3369     -37.6185 
-1.06799e-05      5.39351      139.814 
8.08697e-05      11.3069     -27.3813 
-0.000111023      8.81814      20.8625 
-3.15057e-05      10.4008      118.732 
-5.05337e-05      9.94024     -123.596 
-8.12233e-05      14.1855      134.372 
-3.09746e-05      6.90722      162.297 
5.12679e-05      9.56716     -24.5831 
-0.000239244      9.83869      172.762 
1.05485e-05      6.51505     -166.689 
-0.000185944      10.8873      58.6753 
-0.000285305      10.1079      168.355 
-0.000148923      12.3915      139.908 
6.99898e-05      10.2894      104.983 
-0.000108803      10.3580     -111.759 
-0.000118380      10.7036      107.284 
2.06786e-05      8.59264     -148.418 
-3.01601e-05      12.3620      135.917 
1.04353e-05      12.6416      53.9464 
-2.05240e-05      6.28384      87.9949 
-7.07958e-05      11.8414     -54.0023 
1.04087e-05      5.60426      164.475 
-3.08305e-05      10.1536     -95.8791 
6.81045e-05      9.94428      143.175 
-2.05255e-05      10.8763     -26.4236 
8.00887e-05      12.6535      53.8722 
0.000178887      10.7708      67.6249 
1.03239e-05      13.6893      137.546 
2.00334e-05      6.59421      79.3371 
-2.00115e-05      11.0606     -39.1297 
-3.94842e-05      7.18896     -33.4230 
-0.000127265      9.47976     -99.1044 
-2.02186e-05      9.11361     -47.1354 
-0.000156365      10.4105      118.830 
2.02045e-05      11.4226     -27.1912 
2.94048e-05      9.41459     -167.736 
-1.01638e-05      4.16104     -65.2790 
5.90116e-05      11.6487      140.434 
-1.98057e-05      11.2877     -39.8948 
-5.82327e-05      11.2195      149.231 
0.000107461      11.0966     -48.7259 
-1.01329e-05      11.0355     -51.0305 
3.92619e-05      10.2737      14.1976 
4.87992e-05      11.6100     -34.0454 
-6.85641e-05      11.6964      147.644 
-5.92090e-05      11.5297     -125.041 
7.79847e-05      6.41323      57.3494 
-0.000117065      10.1710     -95.7543 
2.91595e-05      8.90414      53.3088 
-1.00551e-05      9.26730     -12.7185 
1.00073e-05      10.8176      64.9495 
-3.91557e-05      4.16924     -65.0354 
-9.69902e-05      9.66416     -66.4585 
0.000260219      13.6933      42.0992 
0.000115490      9.58559     -24.5327 
-9.92427e-06      11.6578     -138.269 
0.000230748      10.5629     -160.879 
1.95654e-05      13.3559      46.6983 
-4.81854e-05      5.13606     -36.2889 
0.000268878      12.6430      40.3154 
2.90188e-05      8.89959      53.1301 
-9.86284e-06      8.89795      144.238 
0.000278474      14.1042      43.5621 
1.93992e-05      8.58204     -148.534 
9.80926e-06      13.6798      42.0363 
-6.77730e-05      11.9329      147.107 
-3.89237e-05      10.1887     -172.442 
7.67126e-05      6.22318     -91.8449 
0.000134237      9.64188      8.35019 
-0.000114472      8.82510      20.9808 
9.77851e-06      9.63896      8.23103 
3.83159e-05      9.80470      117.716 
4.79504e-05      10.3354      16.2968 
-4.79091e-05      11.6713     -138.195 
1.93432e-05      12.9265      134.499 
3.84426e-05      11.9206      31.9052 
1.93037e-05      10.8442      64.9014 
-9.71032e-06      10.9521     -126.536 
-5.74110e-05      11.8300     -54.0787 
-3.83201e-05      11.3581      144.967 
-0.000133966      11.7237      147.611 
-1.93033e-05      13.8594      134.882 
-9.67624e-06      10.3511     -170.882 
5.73930e-05      11.2890     -27.4286 
3.82115e-05      6.38624      79.5338 
-0.000162552      13.6484      135.771 
1.92031e-05      9.90604     -151.678 
7.63220e-05      10.7521      67.5838 
5.73598e-05      14.0575      44.6561 
-7.63590e-05      10.4965      120.327 
2.86824e-05      13.3951      43.9718 
-0.000133724      10.1712     -172.318 
-4.77626e-05      9.93482     -123.752 
-1.91227e-05      8.94047      89.4854 
7.64488e-05      12.6650      53.8009 
-9.58304e-06      11.0393      55.7061 
-2.86449e-05      10.6296     -111.641 
3.81517e-05      12.9411      135.815 
2.86142e-05      11.3512     -27.3764 
-4.77052e-05      11.9499      147.160 
-0.000124217      13.8737      134.941 
-9.57582e-06      7.42746     -172.260 
9.57982e-06      10.3075      14.0383 
-1.91014e-05      9.67068      177.274 
-9.56597e-06      9.25943      161.487 
0.000133548      10.3769      13.2604 
-5.72942e-05      10.3467     -111.905 
8.57064e-05      5.38983     -79.5239 
-5.73963e-05      10.3542     -170.775 
-9.53797e-06      8.42575      146.423 
-1.90650e-05      11.1086     -142.388 
-0.000114755      10.1690     -95.6450 
-6.69073e-05      9.34426     -178.284 
-2.85615e-05      5.27778     -104.929 
5.72432e-05      10.7028      124.878 
-9.54156e-05      9.86061      172.659 
8.59523e-05      11.0985     -48.8735 
3.81700e-05      6.41897      155.907 
9.55411e-06      10.0112     -164.354 
9.53521e-05      14.1722      44.1998 
2.85527e-05      13.1036      43.0206 
1.90288e-05      12.8295     -49.8065 
-4.69063e-05      9.34904      44.2195 
-9.51643e-06      11.2597     -39.8848 
-3.80866e-05      9.87386     -172.085 
-4.77326e-05      11.3416      144.908 
-9.51837e-06      9.88005     -28.5368 
-2.85586e-05      11.2363      149.282 
2.86627e-05      9.88821     -151.622 
6.67812e-05      12.9698      135.813 
4.76895e-05      13.4800      133.978 
1.90252e-05      10.5217      13.7469 
-2.86400e-05      12.5015      125.955 
-2.86373e-05      11.1370     -142.369 
4.77047e-05      10.7189      157.741 
2.86037e-05      11.4265     -33.9405 
-2.85934e-05      10.6373     -39.7367 
3.81706e-05      13.7064      42.1597 
1.90131e-05      13.6942      41.9816 
-2.87514e-05      7.49309     -35.7705 
2.86537e-05      9.09574     -3.40532 
2.86805e-05      11.3332     -27.4235 
-3.68229e-05      4.17783     -64.7835 
1.90318e-05      13.4999      40.7940 
9.52000e-06      13.1160      43.2080 
3.82193e-05      12.8750     -139.157 
-3.82907e-05      11.7332      142.272 
2.87082e-05      11.9041      31.9548 
1.90423e-05      10.1633     -5.30818 
-4.78965e-05      10.2820     -169.806 
-6.69784e-05      10.0888      168.332 
-7.66437e-05      11.7129      147.695 
-1.91424e-05      14.1858     -45.7437 
-9.51065e-06      10.4203      118.928 
-1.91403e-05      11.2264      149.367 
2.86873e-05      12.8450     -49.8649 
1.91311e-05      13.7050      42.2794 
2.87695e-05      9.68273      23.4936 
3.84152e-05      6.43747      155.981 
-9.53388e-06      9.87263     -28.6942 
-9.55767e-06      11.3268     -146.451 
1.88088e-05      8.27521      136.271 
3.84104e-05      14.1858      44.2563 
-9.54810e-06      11.0932     -142.326 
1.91645e-05      10.1266      141.819 
3.83957e-05      13.7078      42.0446 
2.88581e-05      10.1439     -5.31837 
-1.91905e-05      11.1531     -142.432 
2.88485e-05      10.3913      13.1270 
-1.92718e-05      10.8941     -146.078 
-9.58910e-06      10.5133      120.273 
-9.59670e-06      9.32252     -96.6514 
9.58745e-06      13.7187      42.3420 
-9.61277e-06      12.3892      139.781 
9.58706e-06      11.3994     -33.9139 
-9.60979e-06      11.4049     -136.848 
1.92853e-05      13.7093      41.9250 
9.63467e-06      13.1152      43.3331 
-9.62733e-06      9.84126      172.645 
0.000180470      12.6293     -45.4502 
0.000122306      13.3097     -132.199 
2.24929e-05      9.12162      135.090 
-5.22051e-05      8.71443      123.106 
-8.80363e-05      9.04185     -75.6570 
2.11431e-05      9.90309      58.4622 
-2.06161e-05      7.90372      1.74098 
5.72590e-05      9.86904      92.4404 
5.94282e-05      9.35438     -106.267 
4.84531e-05      9.13598      135.180 
4.79160e-05      9.54874     -24.6336 
-3.00950e-05      7.88409      1.88717 
-4.90030e-05      5.15241     -36.1556 
5.84877e-05      14.1436      135.802 
5.64978e-05      11.3641     -53.3737 
-6.65041e-05      10.3555     -10.5722 
3.75477e-05      11.3653     -37.6371 
1.93778e-05      13.6329     -131.313 
3.67277e-05      9.78743      117.769 
1.93853e-05      9.54031     -24.5230 
-5.58662e-05      9.27793      161.525 
-9.77876e-06      11.6828     -132.016 
9.73640e-06      8.58673      136.416 
9.66416e-06      10.2998      105.197 
-3.67134e-05      10.4321      19.7201 
-9.58725e-06      8.46102      122.450 
-1.87174e-05      7.82838     -129.508 
9.42109e-06      11.3530     -37.5561 
1.83712e-05      9.54433      36.2221 
9.37153e-06      6.34096      124.597 
9.28185e-06      5.59676      146.367 
2.70838e-05      9.58320     -91.4358 
2.81901e-05      9.05691      75.2891 
2.80677e-05      9.35059     -136.301 
2.72549e-05      10.8619      64.9451 
-9.36283e-06      6.41537     -147.996 
-1.83075e-05      6.26433      87.8032 
-9.21305e-06      5.90014      53.1272 
3.59729e-05      10.9417      158.783 
1.80338e-05      14.3970      135.226 
1.78966e-05      9.46724      38.3960 
-9.14791e-06      10.6217     -129.807 
9.11658e-06      10.2063      105.807 
-9.10589e-06      9.65660      121.877 
1.79288e-05      12.8837      134.434 
-9.06491e-06      5.88664      54.9607 
1.77578e-05      10.0289     -68.9613 
-1.77676e-05      12.4532     -128.544 
-8.94166e-06      12.5019      50.4529 
-1.77551e-05      10.6088     -129.723 
8.79365e-06      7.60724      110.625 
! Tentative model.
! Flux (Jy) Radius (mas)  Theta (deg)  Major FWHM (mas)  Axial ratio   Phi (deg) T \
! Freq (Hz)     SpecIndex
9.47891e-06      9.05691      75.2886 
