! Center RA: 12 21 31.69052,  Dec: +28 13 58.50011 (2000.0)
! Established model.
! Flux (Jy) Radius (mas)  Theta (deg)  Major FWHM (mas)  Axial ratio   Phi (deg) T \
! Freq (Hz)     SpecIndex
 0.0581971    0.0202604      180.000 
 0.0502918      0.00000      0.00000 
0.00620565    0.0202604     -90.0000 
 0.0308503    0.0286526     -135.000 
0.00431203    0.0633577      71.3505 
 0.0192343    0.0446338     -116.996 
 0.0138516    0.0828082      75.8378 
0.00364939     0.325253      100.636 
0.00792356     0.302778      97.5477 
 0.0165320     0.101837      78.5245 
0.00284889     0.417588      106.709 
0.00531846     0.443026      108.466 
0.000891189     0.345185      100.015 
0.000163349     0.392593      104.727 
 0.0122397     0.282706      98.0871 
0.00694595     0.455823      105.272 
0.00452179     0.121759      80.4216 
0.000392122     0.461573      107.699 
0.000815151     0.437032      105.945 
0.00337214     0.475398      104.628 
0.00136445     0.260423      94.4620 
0.00235494     0.987971      111.381 
0.00160605     0.961787      110.697 
0.000870675     0.980766      110.279 
0.000176586     0.480914      106.965 
0.000347018     0.411965      112.829 
0.00219613     0.140322      90.0000 
0.00100362     0.495028      104.036 
0.000949848     0.394056      113.929 
0.000161796     0.969133      111.818 
0.000160383      1.00686      110.961 
0.00120548     0.513977      103.509 
0.000315198     0.951048      112.255 
0.000463209      1.02511      110.571 
0.00173888     0.262662      98.7088 
0.000450745     0.932329      112.726 
0.000296972     0.924690      111.568 
0.000699277     0.509625      101.293 
0.00113366      1.04410      110.180 
0.00475994    0.0397705     -90.0000 
0.000420394     0.420241      115.375 
0.00135380     0.905879      112.039 
0.000808723     0.402700      116.565 
0.00102998      1.06991      110.787 
0.00273742     0.529508      100.864 
0.000601483     0.240977      94.8229 
0.00129624     0.533698      103.001 
0.00176829     0.913675      113.217 
0.00188604     0.429314      117.819 
0.000996044     0.887825      112.512 
0.00105460      1.10296      112.395 
0.000327144      1.03728      109.130 
0.000536922      1.13722      113.859 
0.000841346     0.733822      107.434 
0.000765946     0.714519      107.921 
0.00195827      1.16399      114.368 
0.00101923      1.00559      107.367 
0.000948656     0.921540      114.332 
0.00175462    0.0633577     -108.650 
0.000935334     0.553458      102.529 
0.000169798     0.320306      86.3734 
0.000166351     0.412159      119.085 
0.000473409     0.243395      99.4042 
0.00112292    0.0896014      63.6495 
0.000315553     0.753177      106.973 
8.15021e-05     0.342244      83.3269 
0.000307491     0.999726      106.258 
0.000227984     0.438758      120.073 
0.000782533     0.362375      83.6991 
0.000748413      1.18985      114.836 
0.000513954     0.975424      105.437 
0.000375104     0.930071      115.469 
0.000151476     0.394577      120.515 
0.000517224     0.695981      108.415 
0.000189878     0.797167      107.531 
0.000276793     0.377263      122.078 
0.000494669     0.771858      106.550 
7.07083e-05     0.938962      116.586 
0.000895175      1.19850      115.715 
0.000335575     0.965848      117.083 
0.000130688     0.223431      100.253 
6.77313e-05     0.456404      118.798 
6.75684e-05     0.931206      104.943 
0.000601206     0.350038      120.964 
0.000131036     0.815792      107.118 
0.000311785      1.02494      107.029 
0.000239637     0.181229      96.4188 
6.54794e-05     0.950796      104.628 
0.000304690     0.474259      117.619 
0.00128913    0.0600310     -90.0000 
0.000512247     0.926189      103.732 
0.000473225     0.975239      118.143 
6.20726e-05     0.907248      104.025 
0.000290962     0.381773      84.0205 
0.000879304      1.26682      111.291 
0.000344369     0.791300      106.132 
6.14532e-05      1.11054      113.326 
0.000290797     0.549419      100.466 
0.000426878    0.0720098      33.5245 
5.89739e-05      1.08495      112.788 
0.000163323      1.09265      113.731 
0.000269833     0.365154      80.5377 
5.59409e-05     0.994244      105.138 
0.000406730     0.483985      119.745 
0.000199331      1.11872      114.279 
0.000160891     0.546212      98.4529 
0.000107918      1.20743      116.581 
0.000152526      1.01919      105.940 
0.000776973     0.360880      123.723 
0.000202523     0.984957      119.182 
0.000369039     0.651397      107.913 
5.20428e-05      1.23431      116.970 
0.000199118     0.945882      103.441 
0.000200141     0.786103      104.766 
0.000150859     0.543603      96.3402 
0.000101247      1.00269      118.617 
0.000241787      1.24363      117.802 
4.98290e-05     0.306099      78.6901 
9.60271e-05      1.10096      114.696 
0.000315739     0.384412      81.0157 
4.83896e-05     0.286260      77.8948 
0.000187090     0.541740      94.2100 
4.79752e-05    0.0848966      45.0000 
4.78062e-05     0.788842      98.7544 
0.000674384      1.28502      110.975 
0.000759417    0.0828082     -104.162 
0.000395692      1.01218      119.587 
0.000349873     0.921752      102.554 
4.68060e-05     0.786014      97.2946 
4.61942e-05     0.764371      96.0296 
0.000175935     0.291183      73.9938 
4.58283e-05      1.04433      106.703 
0.000263207      1.25320      118.621 
0.000216913     0.762509      94.5155 
0.000252716     0.501018      118.638 
0.000252190     0.540658      92.1476 
0.000247046      1.03869      105.633 
0.000199791      1.12720      115.217 
0.000121258     0.835434      111.056 
0.000434782      1.26267      119.399 
0.000274381     0.761182      92.9950 
0.000554001    0.0828082      14.1622 
0.000192623     0.297155      70.3754 
0.000192801      1.02234      120.574 
0.000151544     0.540279      90.0000 
0.000114961     0.941538      102.286 
7.68841e-05     0.404436      81.4640 
7.60721e-05     0.510656      120.559 
0.000304161     0.372066      126.223 
0.000451233     0.842640      112.294 
9.84779e-05     0.632861      108.456 
3.71388e-05      1.06303      106.401 
0.000211796      1.27273      120.193 
3.67750e-05     0.760412      91.5268 
0.000731698     0.961344      102.029 
0.000379385     0.449253      122.310 
0.000140501    0.0633577      18.6495 
0.000223275      1.15869      111.264 
0.000365466     0.180093      90.0000 
0.000266442    0.0600310      0.00000 
0.000733998     0.476838      122.990 
4.47405e-05     0.718124      102.860 
0.000130890      1.15578      113.453 
0.000172359     0.740950      93.0768 
0.000550497      1.06689      120.425 
0.000323617     0.200353      90.0000 
4.28464e-05     0.640096      104.460 
0.000157088     0.850533      113.557 
0.000405585     0.441522      84.8320 
0.000387739    0.0633577     -18.6495 
0.000193802     0.621223      104.909 
0.000272943     0.740159      91.5686 
8.15170e-05      1.15150      110.324 
0.000155569      1.17217      115.236 
3.89538e-05      1.16375      109.042 
0.000149950      1.27791      110.127 
3.78187e-05     0.824622      112.808 
0.000384577     0.937436      101.076 
7.19749e-05      1.13205      107.474 
7.23886e-05      1.18095      116.125 
0.000137948     0.540658      87.8524 
7.15907e-05     0.459977      124.364 
0.000303553     0.739882      90.0000 
0.000106161    0.0562440     -45.0000 
0.000272419      1.31124      111.485 
0.000166497     0.832685      114.094 
0.000102005      1.19001      117.001 
0.000496675    0.0896014      26.3505 
0.000229340    0.0633577     -71.3505 
0.000630927     0.181229      83.5812 
0.000368875      1.05965      121.889 
6.62260e-05      1.10196      105.806 
3.34475e-05     0.626742      106.699 
0.000151854     0.561200      85.9362 
0.000202819      1.12613      106.491 
0.000151598    0.0720098     -56.4755 
0.000367475      1.33659      111.957 
0.000458398     0.504899      123.666 
8.76604e-05     0.201375      84.2257 
0.000228701     0.760412      88.4732 
0.000169826     0.841160      115.353 
0.000191135     0.424483      81.8699 
0.000544760    0.0802914     -90.0000 
0.000356872     0.384386      128.660 
0.000298799     0.562998      83.8791 
8.01195e-05     0.627787      112.488 
5.23335e-05      1.16280      116.565 
2.75229e-05     0.957327      100.843 
0.000300379      1.30046      120.516 
0.000354666      1.07049      122.810 
7.63345e-05     0.933756      99.8559 
0.000192711     0.286050      65.1829 
3.16916e-05     0.740159      88.4314 
0.000122181      1.12075      105.534 
0.000629575     0.761182      87.0050 
2.55855e-05     0.867194      115.966 
2.49870e-05     0.635505      114.114 
9.49333e-05     0.849697      116.542 
0.000163031      1.36300      112.428 
0.000333870      2.19570      106.949 
2.43002e-05     0.617068      114.882 
0.000229288     0.101837      11.4755 
0.000213846     0.953723      99.6476 
0.000112915     0.625863      116.565 
0.000100032      1.17200      117.451 
0.000519800     0.107434      21.7271 
2.26614e-05      1.25851      107.560 
2.24335e-05      1.35540      111.636 
0.000395584      1.31047      121.251 
6.39080e-05      1.11549      104.532 
2.19491e-05     0.427819      79.1828 
0.000122781     0.858942      117.752 
9.82682e-05      1.25276      106.709 
7.98109e-05     0.521249      122.478 
0.000122030     0.295127      61.6104 
0.000646182     0.565518      81.8376 
0.000319734      2.22031      107.302 
0.000138026     0.635182      118.200 
0.000208426      3.00633      115.203 
0.000118359      1.38175      112.108 
2.07880e-05     0.407936      78.6487 
0.000726447     0.101837     -101.476 
0.000187067      1.06543      124.294 
0.000147401      1.08715      102.760 
0.000456978     0.396866      130.860 
0.000205027     0.412220      75.9891 
0.000133457      2.99776      114.852 
8.88172e-05     0.322315      60.2717 
0.000253565      3.02400      115.045 
0.000102956     0.868561      118.934 
0.000255320     0.930615      98.6724 
0.000104526      1.39984      111.807 
0.000268872     0.516406      125.538 
0.000117134     0.644631      119.728 
0.000184297      1.10299      85.8255 
0.000100873      2.18988      106.442 
1.99362e-05     0.304887      58.3833 
0.000431341      1.07654      125.152 
0.000105786      1.08285      101.715 
0.000152489      1.41867      111.503 
0.000133990      1.10459      84.8161 
0.000181462     0.332828      57.2415 
1.60316e-05      2.22619      107.781 
7.56333e-05     0.672314      120.372 
1.57105e-05      2.23246      108.277 
1.55537e-05      2.23890      108.769 
6.09541e-05      2.81088      114.376 
3.05288e-05     0.878166      120.049 
0.000381928      1.32109      122.002 
3.05817e-05      2.18444      105.951 
5.73438e-05      1.24709      105.818 
1.52703e-05      2.25201      109.727 
3.02321e-05      3.05063      115.216 
4.05978e-05     0.532403      124.317 
2.97884e-05      2.25867      110.193 
7.21327e-05      2.17896      105.439 
0.000413554      2.41458      121.452 
0.000142709      2.80258      113.998 
2.90149e-05      3.07760      115.397 
0.000120273     0.860688      120.724 
2.88686e-05      2.26574      110.674 
5.50360e-05      2.27298      111.152 
5.48549e-05      3.09524      115.242 
0.000105209      1.43754      111.207 
8.05237e-05      2.68825      109.113 
7.95893e-05      3.09474      110.421 
9.26538e-05      2.17365      104.924 
3.93337e-05     0.682782      121.839 
8.98819e-05      3.43388      108.328 
0.000110448      2.25479      111.330 
0.000121998      1.11058      103.520 
7.26747e-05      3.12222      115.420 
0.000124467      2.76804      113.417 
0.000149466     0.121759      9.57842 
0.000181516      1.27573      99.0357 
0.000114905      3.08293      110.905 
2.50507e-05      2.56153      109.136 
0.000242956      1.43034      110.451 
7.08366e-05      2.68168      108.704 
0.000117384      2.14409      104.036 
0.000256114     0.417588      73.2909 
2.34653e-05      2.55607      110.143 
1.24125e-05      2.32121      108.587 
8.11379e-05      1.27271      98.1349 
0.000441944      3.45311      108.222 
0.000331756     0.654914      121.268 
0.000255994      3.30163      112.053 
0.000163146      3.28366      117.965 
0.000141396     0.871214      121.869 
0.000121044      2.33361      107.981 
1.17691e-05      2.56178      107.718 
0.000207281      2.30488      98.4810 
5.39331e-05      1.14028      105.262 
0.000229185     0.344213      54.4042 
0.000112382      1.29277      98.0078 
0.000148118      2.26196      111.791 
3.06267e-05      2.56286      110.552 
6.45626e-05      2.02851      102.520 
9.23383e-05      2.97939      115.016 
0.000239255     0.762509      85.4845 
2.13748e-05      2.67525      108.293 
0.000194337     0.527985      127.261 
5.81315e-05      2.55591      107.302 
6.37103e-05      1.39561      115.477 
1.04275e-05      1.12320      85.9007 
0.000164378      3.09022      111.256 
0.000156561      1.39514      117.309 
2.02732e-05      2.16871      104.426 
8.28465e-05      2.70088      108.566 
0.000305728     0.126477      18.3275 
0.000120499      1.12476      84.9094 
1.01270e-05      1.22833      106.066 
0.000322413      2.00873      102.645 
4.31956e-05      3.11358      115.083 
2.92707e-05     0.107434     -111.727 
0.000219216      3.29320      118.276 
0.000155369      2.77616      113.801 
0.000110568      2.16375      103.906 
5.39697e-05      1.41738      98.9237 
0.000113050     0.126477     -108.327 
0.000422076      1.07201      126.661 
0.000178834      1.30396      122.474 
0.000235131      2.30198      97.9822 
7.87976e-05     0.410407      133.000 
8.15988e-05      1.29574      98.8950 
2.57329e-05     0.134233     -116.565 
8.39841e-05      1.10618      102.537 
3.88660e-05      2.55183      111.132 
0.000186434      2.56864      106.741 
0.000124388      1.13512      104.275 
9.11216e-05     0.913801      100.073 
0.000114988      2.24316      111.983 
0.000361545     0.156126     -140.265 
0.000462937      3.15147      106.588 
1.61367e-05      1.43380      98.0326 
4.99655e-05     0.882079      122.987 
7.16528e-05      2.69450      108.157 
9.82427e-06      1.15406      117.915 
0.000167190      1.45121      97.1287 
0.000288154      2.38737      121.282 
0.000197028     0.540492      128.970 
0.000175789     0.585580      82.1191 
6.96769e-05      2.28266      98.0502 
2.86313e-05      3.49219      106.979 
5.15104e-05      3.12345      114.589 
7.42533e-05      2.15897      103.384 
7.11973e-06      2.32744      107.506 
0.000192044      1.14420      84.9961 
0.000102886     0.355922      51.8496 
0.000175048      2.78409      114.168 
0.000103734      3.50595      106.577 
3.55303e-05      2.54460      110.706 
0.000158829      3.32000      118.424 
9.55173e-05      3.32042      111.922 
1.82284e-05      2.32946      113.262 
0.000105861     0.395830      135.000 
6.96268e-05      2.35289      107.828 
0.000128107      2.17796      103.265 
4.61675e-05     0.892851      124.037 
3.82160e-05      2.25082      112.461 
0.000248221      1.31495      123.219 
0.000134988      1.13685      118.375 
0.000240949      2.98801      115.368 
6.89686e-05      1.42315      107.174 
4.74733e-05      2.68848      107.762 
0.000189648      2.06459      93.8972 
2.67757e-05      3.11539      114.262 
7.40414e-05      1.40411      116.195 
6.32136e-05     0.368782      49.3734 
5.02639e-06      2.33754      113.718 
6.73003e-05      2.23211      112.660 
0.000128194     0.553458      130.601 
9.36623e-06      2.53776      110.294 
0.000125388      3.45950      108.541 
0.000178623     0.638318      122.177 
0.000124748     0.950648      81.5117 
6.83169e-05      2.29935      97.5007 
0.000133566      3.32933      118.720 
5.22383e-05      1.15984      104.998 
5.88908e-05      2.35610      113.520 
3.19258e-05     0.917561      101.319 
9.65680e-05      1.44884      96.3336 
3.14208e-05      2.19768      103.144 
0.000148020     0.740950      86.9232 
5.51143e-05      3.51896      106.170 
5.03987e-05     0.904347      125.101 
4.18128e-06      2.51877      110.454 
2.43873e-05      2.51176      110.021 
1.14824e-05      3.07135      111.393 
4.23918e-05      3.32804      112.245 
5.60269e-05     0.381773      47.1506 
5.89358e-05     0.121759     -99.5784 
-0.000696836      2.70401      119.218 
1.80060e-05      2.31944      97.4354 
8.08823e-05      2.79244      114.547 
1.31222e-05      2.35894      108.279 
5.81344e-05      1.40455      118.044 
6.75916e-06      2.34211      97.8445 
3.63567e-05      1.44252      106.936 
3.43601e-06      1.05225      98.7368 
1.31743e-05      2.33953      97.3712 
9.58235e-06      2.68237      107.350 
1.87078e-05      2.21310      102.533 
3.90025e-05      2.01326      103.208 
5.30646e-05      2.42521      121.861 
0.000148085     0.381773      137.151 
1.49340e-05     0.204262      78.7726 
9.39601e-05      2.36144      97.7799 
2.50074e-05      2.21412      112.854 
3.16615e-06      3.06401      111.041 
3.16237e-06     0.315980      55.2532 
3.60377e-05      1.07906      100.700 
4.44474e-05      2.64998      114.047 
3.40861e-05     0.860287      107.566 
7.42505e-05      2.39795      121.696 
3.01536e-06     0.367178      45.0000 
1.93958e-05     0.381773      42.8494 
8.93087e-05      3.39594      120.032 
6.70209e-05      2.23215      102.424 
1.40213e-05      2.60746      106.484 
0.000125459     0.268467      63.4349 
5.30693e-05      2.36605      112.881 
9.79903e-05      2.80092      114.924 
6.78979e-05     0.847467      109.285 
4.14281e-05    0.0998015     -90.0000 
1.68712e-05     0.916147      126.138 
5.18062e-06      2.15454      102.879 
4.36406e-05      2.62618      106.364 
5.58459e-05      2.22207      113.336 
1.06419e-05      3.05680      110.686 
3.89533e-05      3.52761      105.458 
9.56167e-06      2.54996      106.867 
3.85978e-05     0.396866      40.8598 
2.43524e-06      2.50490      109.586 
5.23615e-05      2.65830      114.445 
9.11256e-05      1.06823      128.182 
8.31109e-05      3.01469      115.538 
4.46462e-06     0.968601      128.299 
2.09236e-05     0.260038      67.4310 
4.49652e-05      1.99354      103.341 
3.75032e-05      3.46600      108.859 
2.17678e-06     0.624982      140.212 
4.22923e-05      2.37400      113.332 
4.02955e-05      2.43556      122.251 
-0.000258386     0.250509     -28.6379 
7.53994e-06      2.39086      109.032 
1.81110e-05      2.28001      97.5647 
1.84064e-05     0.551483      133.511 
2.23279e-05      1.14614      83.9871 
4.93953e-05      1.16332      118.764 
1.20918e-05      3.16278      119.978 
0.000121327     0.101837     -78.5245 
6.97041e-05     0.411820      39.0837 
5.44656e-06     0.234065      69.9384 
2.52366e-05     0.953723      80.3524 
6.58058e-05      2.66674      114.842 
3.78131e-05      1.88650      94.8602 
8.29537e-05      2.40866      122.106 
3.65049e-05      1.38427      100.810 
1.68508e-06      1.00874      129.385 
3.23004e-05      2.38152      97.7139 
2.50836e-05      2.53058      107.000 
5.10559e-05      2.80920      115.285 
1.58490e-06      3.04996      110.343 
-5.58153e-05     0.373757      105.487 
2.14653e-05      1.05296      128.838 
-5.90268e-05      1.24025      127.799 
4.13577e-05     0.100252     -53.2159 
-8.77932e-05     0.520365      67.3547 
-2.06289e-05     0.470689      102.241 
4.78641e-06      3.47235      109.163 
-2.44044e-05    0.0828082      165.838 
-3.02298e-05     0.791661      135.000 
-2.86642e-05     0.369026      102.567 
-1.28719e-05     0.466942      99.9013 
6.89133e-06     0.432889      33.6901 
3.39728e-05     0.431906      76.6398 
1.15558e-06      3.49817      109.368 
-1.57995e-05      3.27521      121.261 
-2.48534e-05     0.486913      99.4914 
6.78295e-06      3.31040      118.116 
6.77791e-06      3.52331      109.573 
1.12668e-06      2.40438      98.1276 
4.46642e-06      2.64837      115.026 
-1.11298e-06      3.40110      105.339 
-0.000441645      8.10089     -90.9925 
0.000296461      10.0420      114.474 
0.000116786      7.15432     -9.33191 
-0.000399139      5.23153     -23.4284 
-5.80879e-05      5.16554      30.7339 
-0.000253960      4.64068     -133.257 
0.000255047      6.84542     -33.3190 
-0.000246915      5.56262      12.0375 
-0.000288985      8.75647     -136.389 
0.000242300      7.90592      18.8958 
-0.000174417      1.34259     -56.5586 
-0.000239346      5.17593      30.9267 
-0.000242541      4.84076     -20.3086 
0.000199069      11.0139     -61.9457 
0.000234799      3.30842      13.2829 
0.000170693      7.13507     -9.35732 
0.000236091      10.8608     -70.5310 
-0.000214812      5.28737      18.9827 
0.000100313      8.20237     -141.731 
-5.09152e-05      2.55329     -95.8363 
0.000135815      4.67242     -79.8902 
0.000156875      8.76661      92.2222 
-7.19663e-05      7.38427     -53.0381 
-0.000158936      5.52944     -45.1484 
-0.000156915      1.89287      38.5782 
0.000161919      8.95891     -19.9724 
-0.000115049      2.70640      81.9350 
-0.000176751      13.6480     -45.6549 
-4.67742e-05      2.55543     -96.2882 
6.90625e-05      8.78352     -144.826 
0.000111192      12.9563      38.3540 
-4.69591e-05      6.27061      137.459 
4.60255e-05      9.23943     -63.1041 
0.000130381      11.6106     -120.543 
8.71717e-05      6.49171      168.451 
0.000108126      12.3609     -41.0642 
8.80436e-05      8.18706     -141.647 
-2.30594e-05      10.8626      70.1981 
-4.49147e-05      8.84278     -165.463 
-0.000149284      12.1290      42.7937 
-2.29994e-05      3.47005      38.9172 
0.000108429      9.83026      117.244 
6.51984e-05      8.17147     -145.570 
-6.55934e-05      7.04623     -66.0555 
0.000126669      9.23505     -114.845 
-0.000127458      4.06089     -164.865 
-0.000128265      8.27254     -112.907 
-0.000106356      10.3240     -17.2417 
8.49100e-05      10.4785     -56.1267 
-8.47168e-05      6.33315     -138.458 
-4.31137e-05      7.58316     -105.138 
-8.43779e-05      3.45783      38.6656 
-0.000104895      12.2227     -38.0885 
-8.41100e-05      9.90753      61.4162 
6.28657e-05      10.2739     -39.3925 
0.000103304      11.3698      35.1166 
-4.19019e-05      6.28500      137.579 
4.16718e-05      1.35226     -156.451 
6.25862e-05      10.9967     -61.8978 
6.21118e-05      6.69826     -60.6811 
6.20747e-05      8.84744     -156.274 
-2.12760e-05      2.53530     -96.3383 
6.17579e-05      7.91988      175.947 
6.15375e-05      10.2897      8.38242 
-4.12789e-05      3.36824     -105.851 
-4.12249e-05      10.7262     -152.334 
-4.13539e-05      8.03603     -155.282 
4.12742e-05      7.44977     -2.92149 
4.12435e-05      5.28230     -35.1327 
-4.08745e-05      7.35590     -53.0693 
-4.05399e-05      8.73519     -72.2701 
-6.10182e-05      7.42529     -171.322 
4.09822e-05      1.50657     -174.656 
-4.08184e-05      9.94165      1.15476 
-6.03351e-05      8.74779     -53.3670 
4.04884e-05      8.77230     -144.930 
-4.05466e-05      8.83790     -165.585 
-4.08599e-05      10.3435      77.0375 
4.06149e-05      8.97795     -19.9283 
2.02909e-05      8.69514     -58.8327 
-2.01205e-05      5.56688      12.2415 
-2.00172e-05      9.37869      43.7065 
-1.98458e-05      5.24943     -23.3438 
-1.97693e-05      7.69351      104.142 
1.97672e-05      10.9607     -34.0665 
-1.97406e-05      10.3514      13.6353 
-1.96835e-05      5.75533      138.949 
-1.96558e-05      11.6107     -134.791 
-1.96265e-05      9.40086     0.731765 
-6.79202e-05      10.2743     -17.0957 
-0.000236974      10.8649      122.141 
9.93177e-05      4.25462     -97.2955 
-0.000211838      9.94920     -4.38180 
-6.19751e-05      9.64951     -140.636 
-4.23117e-05      12.4389      48.3894 
0.000113276      10.0066      70.6248 
-0.000187994      10.2933     -53.9321 
0.000247915      9.63261      18.7723 
-0.000313097      10.2549     -17.1289 
-0.000173360      13.0160      128.260 
-2.10424e-05      10.1988     -25.3075 
-7.80152e-05      11.8768      143.768 
-7.68638e-05      1.90272     -77.8658 
-4.06164e-05      5.88344      1.95151 
-0.000237346      10.6846     -131.356 
2.05397e-05      9.40511      8.56196 
7.54703e-05      7.23691     -101.156 
-0.000124475      7.33815      97.2020 
-3.98659e-05      9.73154     -174.100 
-3.84865e-05      10.2075     -25.4103 
7.54714e-05      4.25430      76.6819 
-0.000167112      8.81270     -46.3800 
-5.16381e-05      7.40222     -8.54656 
-7.21489e-05      10.7594      109.211 
5.13304e-05      11.6598      148.109 
-0.000103968      12.4255      48.4593 
-0.000157831      11.1724      141.468 
3.84435e-05      9.38508      8.58037 
-0.000103343      10.1556     -28.0780 
-0.000119042      3.57070      41.3706 
-0.000238756      10.2258     -25.3616 
-0.000168324      5.47320     -45.1500 
0.000111120      6.12481     -60.6713 
5.48638e-05      10.0367     -176.687 
-5.44920e-05      5.86320      1.95826 
-5.37033e-05      12.3667     -141.962 
5.27523e-05      11.6664      148.246 
-3.65021e-05      9.17489      173.741 
-0.000101536      9.72947     -174.219 
-0.000177743      9.01462      148.427 
-9.66011e-05      4.80494     -102.015 
-5.31539e-05      3.22635      76.7427 
8.42152e-05      9.31944      76.9753 
0.000173202      12.9669     -37.9840 
3.50422e-05      5.64344     -163.102 
-3.44110e-05      2.01276     -79.6913 
-4.94380e-05      9.66460     -140.709 
3.44848e-05      13.1405      136.171 
-3.52951e-05      3.82497      119.784 
3.01925e-05      4.24464     -100.038 
-0.000120122     0.513977     -76.4913 
-4.82491e-05      7.42226     -8.52332 
9.09727e-05      2.89000     -108.562 
-3.40561e-05      8.32411      98.1520 
7.72041e-05      9.38208      8.45803 
9.49391e-05      11.1012      150.062 
1.73414e-05      10.2695      30.8115 
-8.00714e-05      8.81778     -42.6997 
-4.84983e-05      6.66553      14.9530 
3.26680e-05      5.79606     -142.856 
-0.000149703      8.69969      36.8689 
-6.29325e-05      3.83508      120.047 
6.29784e-05      4.24822     -100.308 
-0.000182310      7.00381      88.2011 
7.66483e-05      10.5062     -56.1000 
4.75534e-05      6.53083      25.3844 
4.36770e-05      9.27484      129.663 
0.000240029      12.1095      34.1627 
8.93842e-05      6.07829     -30.4494 
3.14572e-05      10.7174      56.7261 
-3.15866e-05      11.8489      143.786 
-3.08802e-05      5.25459      61.0924 
-4.14968e-05      6.71653      174.017 
-1.62721e-05      12.3334      52.3137 
4.53542e-05      7.30818      20.1691 
-1.61919e-05      4.82123     -88.5730 
-7.44007e-05      8.64049     -127.665 
-2.65773e-05      10.6932     -28.2411 
1.59983e-05      7.66767     -43.5170 
-3.14243e-05      8.80017     -5.47530 
4.48437e-05      10.1627     -56.9658 
0.000123085      10.1006     -126.301 
-5.39050e-05      6.71032     -71.9419 
4.37463e-05      4.25901      76.4167 
-0.000146336      12.4445      47.6687 
3.05287e-05      9.03258      82.7504 
0.000124922      10.2091     -70.7833 
8.04796e-05      4.38507      103.720 
-0.000190909      10.6754     -28.2926 
-1.56405e-05      10.9490     -111.316 
-0.000154806      12.3174      52.2560 
-1.55379e-05      7.00448      88.0354 
-9.60823e-05      9.48379      42.6079 
3.90761e-05      8.30494     -19.2617 
1.54380e-05      9.35593     -167.658 
0.000110724      6.48231     -178.587 
-4.34352e-05      7.79930     -72.5430 
-0.000105831      9.94663      102.779 
-2.96941e-05      10.1591      11.9316 
-1.53209e-05      7.39924     -8.39142 
-0.000135989      3.58412      41.6136 
-4.02081e-05      9.97924     -139.957 
2.94901e-05      9.59145     -171.243 
-0.000101802      6.78666      80.8449 
2.82086e-05      8.71229      7.38822 
-6.44640e-05      11.5846     -147.407 
1.51391e-05      3.04146     -1.88043 
-1.49830e-05      3.22193      77.0804 
-5.65384e-05      10.8541      122.051 
2.86974e-05      6.48284     -178.408 
0.000106711      9.35178     -167.775 
-0.000116653      8.26163     -28.7999 
-4.19686e-05      2.04844     -80.4480 
4.12312e-05      10.8453     -145.520 
4.29179e-05      9.46909     -169.166 
1.46276e-05      9.32194     -46.3046 
-2.83211e-05      6.64668      14.9964 
-1.45836e-05      4.82178     -88.3324 
-6.61285e-05      8.82034     -5.46275 
-1.44697e-05      6.71445      174.189 
7.36305e-05      10.1010     -38.7303 
3.67601e-05      10.6433     -155.699 
-0.000145534      11.8605      143.710 
-0.000159395      9.86212      1.16407 
6.10795e-05      7.69577     -43.5263 
-5.39364e-05      8.80290     -42.7892 
2.74581e-05      10.8086      161.330 
7.67080e-05      9.13674      82.5773 
0.000296944      13.2088      45.0000 
2.72209e-05      9.95026     -177.350 
-0.000135066      10.1728     -28.0262 
5.14947e-05      12.8831      134.811 
-3.84654e-05      10.9259     -131.364 
-1.39951e-05      6.31984     -162.882 
-7.14207e-05      9.35802     -148.279 
2.69682e-05      7.64539     -75.4536 
3.81618e-05      6.55715      25.4712 
-6.08261e-05      3.81820      120.193 
0.000218065      9.30847     -46.3914 
-2.69062e-05      10.1400      11.9544 
3.70778e-05      4.28409     -116.327 
3.86173e-05      9.26893      15.7746 
-1.38352e-05      7.48576     -32.1192 
-0.000211269      8.65288     -127.771 
0.000270588      10.2417     -178.879 
3.84770e-05      9.57217     -171.225 
7.96824e-05      10.1347     -56.9994 
-6.38527e-05      9.70932     -174.207 
2.64375e-05      13.3190     -137.375 
3.63770e-05      12.7846      135.380 
1.34516e-05      7.10657      40.5508 
-9.75153e-05      4.92918      54.2484 
2.56427e-05      8.38021     -150.867 
5.10452e-05      10.6726      38.6088 
-0.000111807      12.9509     -42.6848 
7.17721e-05      8.82339      122.034 
1.33836e-05      10.2763      8.61765 
-9.51700e-05      6.33920     -162.936 
5.14806e-05      11.3965      119.892 
1.31989e-05      5.57145      164.165 
-1.31648e-05      9.63668     -140.729 
-3.67684e-05      6.69430      174.171 
4.70413e-05      11.1113      149.972 
-2.58782e-05      11.3458      52.1622 
8.25104e-05      10.4953     -56.1884 
-5.93801e-05      11.3935      48.7008 
-0.000100021      8.82669     -46.2848 
6.65792e-05      9.63915      18.8863 
4.79601e-05      6.06083     -30.5465 
-1.28520e-05      4.89172      49.1489 
8.70448e-05      6.08824     -106.409 
-2.52484e-05      11.1883      141.533 
3.57245e-05      7.32720      20.1145 
1.27840e-05      7.23302     -100.999 
-3.80344e-05      7.62390     -83.8242 
-3.57716e-05      7.49656     -32.2504 
-6.79874e-05      7.62084     -111.718 
-6.52734e-05      7.77998     -72.4983 
1.27015e-05      13.1545      136.107 
0.000142602      13.3058     -137.436 
-6.61330e-05      7.34419     -53.1910 
1.26328e-05      8.62262     -96.9277 
2.43164e-05      9.37912      8.33561 
-1.24884e-05      4.78998     -102.292 
8.88074e-05      4.26662     -116.443 
-2.39259e-05      10.6558     -152.136 
-5.65005e-05      10.0271      134.597 
5.70392e-05      7.77412      147.824 
4.41613e-05      9.03516      82.6230 
3.36204e-05      9.30153      113.038 
6.25157e-05      11.0237      50.4466 
-0.000106876      9.65179     -140.802 
1.22397e-05      7.65031     -75.3122 
-3.36537e-05      7.62603     -83.6785 
2.30715e-05      2.18836      71.9005 
5.59385e-05      7.95436     -121.534 
1.22035e-05      6.43565      118.794 
-2.34348e-05      1.83839      165.510 
-4.26464e-05      11.1603      141.547 
2.37625e-05      10.2593      8.74648 
-2.37600e-05      5.45885     -45.0000 
-0.000112167      3.40613      149.673 
-4.41204e-05      11.3493      52.3004 
4.58617e-05      9.16349     -151.590 
-3.40229e-05      2.02847     -80.3530 
-1.20432e-05     0.609552     -41.0068 
-3.24400e-05      9.49589      37.0410 
-2.19040e-05      6.65196      15.1650 
1.19876e-05      6.60270      18.5482 
4.46802e-05      10.2024     -70.8907 
-0.000254173      11.1761      141.611 
1.19505e-05      9.76515     -85.8887 
-7.98914e-05      8.83153     -42.7963 
8.62364e-05      11.4066      119.981 
2.18930e-05      7.09341      40.4264 
-1.18124e-05      12.6295      140.463 
-4.45164e-05      9.59926     -49.1398 
-1.86312e-05      7.64617     -83.6952 
0.000211322      10.6884      38.5411 
-1.17199e-05      12.2439     -128.368 
3.29451e-05      9.26240      129.570 
3.32883e-05      9.60296      134.747 
0.000110328      9.97625     -172.049 
3.27060e-05      12.2918      35.3958 
1.16360e-05      10.1020     -128.004 
-2.27007e-05      8.12368      5.93283 
-2.29289e-05      8.86088     -18.1480 
-5.07217e-05      10.1527      66.9198 
6.37553e-05      9.76663     -85.7701 
3.07557e-05      4.46303     -48.4489 
1.15804e-05      5.33151     -55.2385 
6.19747e-05      7.67434     -75.2028 
1.15010e-05      1.72252      9.35153 
-3.10363e-05      1.26515      145.292 
-0.000135293      6.74071     0.848339 
2.21710e-05      6.46317      118.865 
3.29556e-05      9.59723      120.842 
-4.22437e-05      12.0194     -128.852 
-4.06660e-05      9.45516      42.6007 
1.13746e-05      11.6900      148.430 
1.13493e-05      9.57516     -171.110 
1.13379e-05      3.41167     -124.253 
-4.11796e-05      6.98972      168.111 
-4.21658e-05      3.55608      41.5783 
2.20319e-05      9.44919     -169.142 
-7.65098e-05      11.3807      48.7746 
4.98698e-05      9.72183     -178.819 
3.24533e-05      11.0958      112.913 
3.88684e-05      6.58420      18.6022 
0.000143275      7.42746      82.2604 
5.66587e-05      8.39792     -150.934 
5.79258e-05      9.68899     -64.7051 
9.48033e-05      12.5599      141.725 
-1.11356e-05      12.6014      140.473 
2.15184e-05      10.0453      113.095 
-1.10423e-05     0.638138     -41.1859 
3.98069e-05      4.41226     -22.3823 
-6.87623e-05      9.84151      101.608 
-4.06833e-05      10.2814     -54.0234 
-0.000133215      13.2927      131.340 
-1.09067e-05      8.34956      42.8622 
-1.08106e-05      12.2472     -128.235 
-1.08351e-05      10.6120      61.8910 
-6.60162e-05      8.90937      144.136 
-4.07879e-05      9.22347     -105.211 
-2.10810e-05      10.1549     -11.8198 
1.07569e-05      6.14248     -60.7639 
-7.61088e-05      8.88013     -18.1073 
-0.000112871      7.64842     -83.5443 
1.99058e-05      12.8694      134.750 
3.78807e-05      3.79798      29.6648 
-9.66569e-05      8.27939     -28.7323 
3.09554e-05      5.64412     -53.2154 
-0.000196238      12.6012      44.5513 
2.94923e-05      9.37631      8.21765 
-5.84030e-05      12.5864      140.416 
-4.96151e-05      9.06004     -36.7437 
1.05740e-05      2.89651     -108.942 
-0.000141963      11.8512     -130.138 
5.65655e-05      6.05400     -30.7993 
3.03802e-05      9.55515     -171.091 
1.05179e-05      1.70327      9.45817 
2.05688e-05      6.80309     -41.1853 
0.000241543      12.4717      145.189 
6.53333e-05      12.7991      135.444 
-2.05063e-05      8.20916      6.29219 
-1.95228e-05      2.69218      95.5342 
-8.32387e-05      12.3298      52.1816 
2.00373e-05      7.33419      20.2631 
1.03411e-05      10.2393      8.76372 
-4.76716e-05      12.5870      44.4855 
-0.000132583      12.2352     -128.163 
-2.94583e-05      3.91385     -31.4197 
3.77695e-05      9.14567     -151.530 
1.02298e-05      7.13204     -100.175 
5.56452e-05      7.64844     -25.5619 
-8.21010e-05      9.09692     -93.5280 
3.65332e-05      6.56589      25.6309 
3.76485e-05      3.39494     -124.445 
-0.000212621      10.0578      51.2147 
2.87972e-05      5.60264      155.536 
5.91099e-05      11.7002     -145.306 
4.67333e-05      6.79067      43.5672 
2.80546e-05      12.9544     -37.9134 
1.00894e-05      5.94794     -163.396 
-1.95162e-05      13.0285      128.330 
5.33160e-05      6.90528     -133.120 
2.89371e-05      8.81266      121.923 
8.89978e-05      11.1037      113.009 
3.71495e-05      6.44544      118.952 
-3.75306e-05      6.98423      88.0297 
7.47447e-05      9.29045      129.583 
1.89749e-05      10.1168     -38.6585 
8.14240e-05      9.61463      120.780 
9.96908e-06      9.13928      82.4560 
9.37905e-05      10.6290     -32.9440 
1.94396e-05      5.49535      30.3922 
6.57632e-05      9.45303     -169.022 
-7.31102e-05      6.80592      80.8710 
-0.000136417      10.6840     -28.1489 
6.22192e-05      7.50593     -21.5738 
-9.88038e-06      9.14390      154.890 
2.83996e-05      10.0633      113.051 
-1.88460e-05      6.95613      121.358 
-8.52020e-05      11.6544     -141.972 
3.67374e-05      6.10696     -106.357 
4.28927e-05      10.7257      21.7821 
-2.68469e-05      9.03125      148.492 
8.76113e-05      7.12848     -100.015 
2.78189e-05      12.3597      34.3847 
-1.91498e-05      3.27432      166.225 
9.76143e-06      5.94240     -163.577 
-9.71664e-06      10.6215      61.7946 
1.78988e-05      1.68004      8.89014 
0.000137749      11.6945     -57.2889 
-9.69335e-06      9.58602     -49.2314 
-2.61458e-05      3.80070      120.347 
-1.80708e-05      5.50351     -46.6243 
6.71003e-05      9.96356     -70.2904 
-9.62183e-06      1.85802      165.666 
9.61339e-06      9.27803      129.490 
3.60949e-05      7.76781      147.618 
-0.000103791      11.8441      143.652 
5.79100e-05      10.5851      124.530 
8.07666e-05      11.4167      120.069 
4.74372e-05      5.65627     -53.0511 
-7.94715e-05      9.22881     -105.332 
3.66591e-05      7.66569      115.830 
5.28972e-05      7.94378     -121.409 
-9.53947e-06      8.10353      5.94763 
-4.98154e-05      6.72046     0.850897 
-1.82888e-05      9.84033     -89.4189 
-5.77817e-05      10.1160     -11.8659 
-1.77705e-05      9.66403     -111.361 
9.40291e-06      6.81644     -41.3135 
-1.82434e-05      10.0127      134.678 
2.65219e-05      10.1205     -38.5006 
0.000104364      11.5333      52.2578 
2.66426e-05      10.7257      68.2179 
1.84226e-05      12.3709      42.6426 
-0.000103424      10.2953     -115.919 
-0.000133979      10.7426      117.138 
9.34293e-06      6.15240     -60.5992 
-1.80949e-05      5.43651      123.749 
-0.000105110      10.3748      69.2252 
4.30026e-05      4.26381     -131.768 
6.92447e-05      12.3083      35.3411 
9.28105e-06      6.96770     -10.0852 
2.58412e-05      5.96150      118.888 
9.27787e-06      8.11052     -145.448 
0.000150008      10.1241     -57.0920 
4.40573e-05      9.74642     -85.7613 
-4.35699e-05      9.24082     -86.1540 
-7.26846e-05      9.69449     -4.85314 
-2.66823e-05      10.1031     -88.6381 
7.27555e-05      12.5717     -126.852 
1.79205e-05      11.0655      46.9043 
2.67889e-05      9.53587     -171.073 
1.79543e-05      9.54821     -29.6254 
4.31211e-05      9.86562      116.879 
3.49634e-05      7.06882      177.079 
0.000121006      12.5579      129.571 
-2.62059e-05      5.91290      158.991 
-4.15349e-05      10.8116     -50.4775 
-3.44923e-05      8.46142     -116.685 
-2.63952e-05      9.68249      1.30115 
-9.12037e-06     0.624982     -39.7880 
-7.95632e-05      10.7410      23.3663 
-1.76375e-05      12.0507      51.8734 
-2.57752e-05      9.15220      154.780 
-8.12875e-05      10.8821      122.085 
-0.000115275      11.4463      43.2308 
0.000139133      10.0727     -126.280 
5.13026e-05      4.65669     -79.6117 
9.02803e-06      8.06858      168.270 
-4.51792e-05      3.92068     -31.0127 
2.58666e-05      7.21704      78.8127 
-1.74178e-05      8.87293      94.9145 
8.97335e-06      6.39437      140.581 
8.96894e-06      10.2209     -70.9265 
0.000122224      13.0010     -130.135 
-8.93736e-06      7.52623     -161.563 
8.90737e-06      10.1094     -14.6706 
-8.88870e-06      9.28875     -103.825 
9.32964e-05      10.3725     -18.0850 
8.89106e-06      4.82233     -139.367 
1.67719e-05      10.6894      56.7573 
9.61486e-05      10.0478     -156.291 
-3.30733e-05      11.3369      52.3815 
-4.66692e-05      9.44091     0.851631 
2.58255e-05      8.80196      121.811 
8.81974e-06      13.1945      45.0622 
-8.79885e-06      11.7041      53.2653 
3.99097e-05      9.93340      136.959 
8.79397e-06      5.58547      164.422 
8.78773e-06      5.90479     -142.430 
-0.000179950      10.2607     -17.2330 
3.36561e-05      10.3916     -104.943 
2.57487e-05      13.0731      140.588 
-0.000143343      10.3500      77.3865 
-8.73942e-06      12.5579      140.429 
5.47482e-05      10.0819      113.006 
3.02971e-05      5.51219      30.2896 
6.36410e-05      7.73804      25.5711 
2.43662e-05      10.5559      126.371 
-0.000108183      9.60428      59.3234 
-0.000169321      9.29362     -103.946 
7.53433e-05      9.95618     -172.033 
8.61561e-06      6.17006     -60.6916 
3.99445e-05      9.58447      39.8354 
1.62831e-05      4.09098      172.983 
4.88705e-05      9.12853     -151.471 
1.69599e-05      9.07197     -58.7989 
-7.25196e-05      12.5423      140.370 
0.000183612      13.7481     -132.230 
-1.67528e-05      13.3566      49.1302 
-4.41516e-05      12.9516     -42.5604 
2.35507e-05      7.63406      23.1402 
2.29315e-05      11.0366      50.3655 
1.66491e-05      12.7710      135.443 
-8.46096e-06      10.1189      132.839 
8.63588e-05      10.1977     -101.309 
9.11100e-05      4.80916     -139.550 
-2.42751e-05      9.84056     -89.3009 
3.79727e-05      12.3544      34.5153 
7.97844e-05      9.56583     -29.5654 
6.08795e-05      7.68393      115.764 
8.41799e-06      9.37344      8.09507 
-1.58415e-05      12.9266     -44.2474 
2.38697e-05      5.01444      68.9613 
-3.74037e-05      9.81994      159.869 
-7.66520e-05      13.2928      50.2516 
-8.65043e-05      12.1256      146.572 
4.41299e-05      9.12416     -59.7256 
-3.74224e-05      11.6920      53.3449 
-3.83891e-05      8.23154      6.41691 
-8.34028e-06      10.6403     -133.174 
-4.26472e-05      7.23539     -144.902 
8.31533e-06      11.0476     -57.7186 
-3.80177e-05      13.6344     -45.7135 
8.30892e-06      11.0368      46.9092 
8.27469e-06      8.04514      119.817 
9.52839e-05      9.77209     -87.1831 
0.000196176      13.0753      140.711 
-9.26165e-05      9.68991     -174.195 
-6.70423e-05      3.90333     -31.1659 
-8.23348e-06      5.84440      2.15595 
8.23066e-06      5.92026     -142.545 
5.25745e-05      10.0146      119.688 
8.22841e-06      11.3090      35.2075 
-4.57378e-05      9.83745      101.492 
5.92281e-05      9.51284     -171.170 
-2.36167e-05      9.88238      1.16168 
-8.20256e-06      7.37122      149.328 
-8.19750e-06      11.7788      30.9638 
-4.77113e-05      10.6537     -133.250 
-1.61885e-05      2.97317      132.269 
2.39167e-05      11.4434      120.104 
-8.15313e-06      10.0125      134.836 
4.89530e-05      12.6615     -41.9251 
-8.14908e-06      9.44081      42.6808 
-4.53371e-05      10.1051      132.755 
5.15347e-05      12.1927      133.935 
0.000205709      13.2909     -137.377 
2.38054e-05      8.79169      121.703 
8.13306e-06      10.6350     -32.7930 
1.56793e-05      9.70172     -128.051 
0.000130062      9.08248     -58.6896 
-4.48105e-05      8.82061     -158.028 
4.31263e-05      12.7099      40.5345 
-3.14687e-05      11.5667     -33.0035 
2.35293e-05      10.6994      68.2784 
0.000106743      11.2925      35.2668 
6.94924e-05      9.45672     -105.331 
-2.33638e-05      5.51744     -46.4713 
3.66988e-05      11.0581     -57.6332 
-8.04393e-06      2.69421      95.9631 
8.03007e-06      6.07468     -93.9666 
1.55302e-05      4.76038     0.966430 
2.97829e-05      7.21313      78.9706 
4.49666e-05      5.36959     -166.430 
-4.38195e-05      9.58061     -124.453 
-8.19945e-05      9.90887     -151.158 
4.42249e-05      7.44556     -132.607 
-1.53195e-05      9.89158      161.489 
2.92118e-05      4.40458     -22.1386 
5.53487e-05      4.23521     -131.747 
4.38688e-05      7.63085     -25.6252 
-3.05102e-05      3.82033      168.224 
-0.000151423      10.3479     -9.00740 
-7.95007e-06      8.89406      95.0290 
3.62633e-05      9.70192     -178.936 
1.54179e-05      10.1232     -38.3421 
5.82784e-05      5.34410     -118.865 
2.21994e-05      6.03661     -30.8978 
0.000151180      11.1113      113.102 
-9.82694e-05      9.28409     -78.5693 
7.87520e-06      8.12721     -145.529 
3.60652e-05      7.52477     -21.5171 
9.81947e-05      11.9638     -132.221 
1.52882e-05      12.3560      42.7062 
-1.54204e-05      3.59711      41.8460 
-5.62609e-05      12.0632      51.7977 
4.99151e-05      4.25763     -116.199 
3.06198e-05      8.82169     -169.021 
-2.95943e-05      8.89868     -18.0683 
-6.18717e-05      2.96008      131.989 
-7.84806e-06      7.81511      84.5675 
-2.22709e-05      9.24763     -105.300 
-6.99185e-05      8.89296      144.059 
5.63779e-05      12.7854      135.506 
-4.25613e-05      8.00949      125.755 
2.13844e-05      13.0160      51.7400 
2.21784e-05      4.66039     -79.3667 
-4.30838e-05      9.07745     -93.5356 
-1.49921e-05      9.67599      36.6824 
-0.000102542      7.88466     -53.7714 
-0.000156084      13.5147     -130.740 
-2.84691e-05      8.37086     -94.9368 
-7.64575e-06      10.7001      152.143 
5.64486e-05      10.3773     -105.080 
-1.48555e-05      8.63742      140.446 
-2.18769e-05      8.46931     -87.2932 
0.000100457      11.4265      120.153 
-3.55736e-05      3.61360     -165.583 
-4.75931e-05      9.26804      43.1628 
-2.15519e-05      10.0125      135.000 
1.49218e-05      7.69433      62.1004 
-1.48960e-05      8.91603      95.1473 
-7.57359e-06      10.2028      82.6816 
7.56907e-06      10.2143     -71.0339 
-0.000128057      11.5497     -33.0582 
4.59911e-05      7.20521     -21.1532 
-0.000101089      12.9676     -39.6799 
-4.65900e-05      3.92093      50.3812 
-2.16857e-05      10.1907     -27.9727 
7.51135e-06      10.2362      8.65164 
3.56682e-05      9.11073     -151.411 
-7.49737e-06      7.38865      149.408 
0.000106403      10.7182      68.3185 
-2.09002e-05      9.38975      155.727 
-3.64356e-05      12.5272      140.313 
-7.43709e-06      3.23570      166.057 
-4.10450e-05      7.85024      87.0796 
4.83060e-05      12.0981      34.0833 
-4.79310e-05      10.1835      82.6676 
-7.36956e-05      11.1832     -48.8441 
-7.40183e-06      9.86138     -89.0713 
7.38557e-06      6.53428     -41.1494 
-5.32133e-05      3.84433      167.990 
-7.46089e-05      9.62563     -149.813 
-5.38925e-05      10.6910      152.235 
-2.81071e-05      9.16483      52.1806 
7.33170e-06      13.1445     -48.2073 
3.97926e-05      9.85648      116.774 
5.97413e-05      10.3203     -65.6209 
7.26132e-06      11.0230      46.9861 
1.37540e-05      10.1391     -38.2711 
2.69267e-05      9.93493      137.121 
-5.33576e-05      9.57598      166.717 
7.21568e-06      10.0324      70.5540 
2.12636e-05      8.81785     -169.150 
-7.19432e-06      10.0969     -11.8887 
-2.10512e-05      8.03218      93.1383 
3.33184e-05      9.97016     -70.1849 
-3.39599e-05      5.51771     -46.7634 
7.17997e-06      9.46698     -92.1804 
-5.22458e-05      9.59048     -164.023 
-2.01321e-05      5.60406      84.6757 
-1.39963e-05      11.8605     -147.114 
-3.37636e-05      8.93805      95.2650 
-2.10904e-05      9.86173     -88.9536 
-7.79968e-05      9.83729      81.9360 
5.28633e-05      12.3595      141.109 
7.11083e-06      9.71768     -127.978 
2.00579e-05      8.78106      121.590 
-2.67456e-05      12.9408     -44.3116 
-2.64191e-05      4.98168      9.00403 
-2.03688e-05      9.26329      134.915 
5.29601e-05      7.75632      25.5065 
4.56564e-05      12.5735      129.513 
7.09575e-06      8.91455      28.6944 
7.08141e-06      11.9503     -44.7965 
7.08009e-06      10.2290     -34.0013 
3.33223e-05      6.75243     -60.5521 
-0.000116757      13.2803      50.3163 
-1.38119e-05      3.21604      165.970 
-5.26598e-05      10.7224      23.4092 
-0.000110708      12.5148      140.381 
2.64628e-05      12.3692      42.7727 
1.98859e-05      10.4515     -73.0911 
-3.38501e-05      9.38061      89.2667 
1.37452e-05      10.1610      130.210 
-1.38153e-05      11.2360      53.3934 
-1.36667e-05      9.66750     -140.878 
-8.37389e-05      10.3820      69.1207 
2.56505e-05      12.0813      34.1372 
6.96821e-06      9.22160      14.6978 
-2.65583e-05     0.588377      54.7087 
-5.84038e-05      13.2775      131.398 
1.97282e-05      10.4458     -73.1935 
-4.59282e-05      8.14925     -14.2051 
6.91745e-06      10.0322      119.631 
-5.81201e-05      9.81358      101.400 
4.52049e-05      10.5680      126.459 
5.22073e-05      10.8455      119.495 
-6.88336e-06      10.2972     -54.0871 
-7.72674e-05      8.93986      95.3895 
3.86766e-05      9.61343      18.8111 
1.95663e-05      10.2339     -33.8462 
-6.86159e-06      5.90201      158.740 
6.84704e-06      8.65531     -7.56740 
-7.01862e-05      13.2595      132.982 
5.16141e-05      10.4738      35.7558 
6.33158e-05      13.7345     -132.168 
1.33948e-05      9.48648     -92.1759 
-2.58328e-05      10.2079     -27.9214 
-2.59796e-05      11.9126      30.9142 
-1.98964e-05      11.4253      126.025 
2.59389e-05      10.2381      97.0688 
6.75366e-06      7.67514      115.628 
3.84645e-05      8.79795     -169.125 
6.37923e-05      4.46755     -163.349 
4.47874e-05      11.9642     -44.7306 
-4.48800e-05      9.86212     -88.8359 
1.30855e-05      10.8268      61.7778 
3.24079e-05      12.3242      35.2887 
1.32850e-05      10.5616      52.1514 
-6.73662e-06      10.7987     -50.5604 
3.92368e-05      10.4374     -118.876 
-3.22560e-05      9.44122     0.970019 
6.73477e-06      12.5758      141.782 
2.59133e-05      9.29451     -46.4819 
-1.92470e-05      11.8435     -147.061 
6.71193e-06      11.0522      50.4325 
4.57547e-05      10.4840     -56.2804 
-1.91494e-05      11.5491      39.5877 
-2.55938e-05      12.8551      45.3145 
1.31408e-05      8.65562      45.5620 
-2.57425e-05      9.89603     -123.209 
-6.68698e-06      8.23383      6.55701 
-4.42373e-05      9.16189      52.0057 
-1.32394e-05      12.6299      37.7959 
5.07149e-05      10.1282      103.706 
-1.31782e-05      3.84017      168.286 
5.06173e-05      10.0422      119.732 
1.29283e-05      10.7347     -41.9768 
6.63193e-06      9.10334     -151.240 
1.30598e-05      11.5101     -56.3389 
3.18636e-05      10.5492      52.2383 
-6.61672e-06      9.46888      42.6909 
-3.18966e-05      11.8562      143.573 
5.67726e-05      6.20871     -117.637 
-3.17068e-05      3.59471     -165.505 
6.90836e-05      13.7663     -133.293 
-2.56417e-05      9.07872     -93.6632 
-1.90482e-05      4.78724      9.61883 
-2.53776e-05      11.3145     -60.2198 
3.14419e-05      7.11933     -172.575 
3.76954e-05      9.09360     -151.352 
-1.29422e-05      10.0914      132.671 
2.54515e-05      10.1765      130.137 
-2.53650e-05      8.25396      6.54095 
1.94078e-05      11.6781     -57.2371 
2.52944e-05      12.9814      39.0596 
6.54291e-06      13.7810     -133.235 
1.90435e-05      9.49282     -171.151 
-1.88802e-05      11.3448     -50.8655 
-1.29225e-05      12.2386     -128.030 
-1.91661e-05      11.2239      53.4764 
1.89052e-05      8.58707     -123.505 
1.27621e-05      5.33621     -119.160 
1.88724e-05      12.1792      133.869 
-6.48871e-06      12.5855      37.8360 
-1.87522e-05      8.05166      93.1307 
-1.89219e-05      11.3282      57.1815 
1.27085e-05      7.43186     -132.492 
-1.26092e-05      10.3255     -54.0620 
1.28788e-05      9.77112     -87.3017 
1.26998e-05      9.44437     -37.4262 
-1.90349e-05      9.38037      89.3904 
-1.26861e-05      9.65473     -140.972 
-6.42983e-06      10.0125      135.164 
-1.88587e-05      12.6265     -137.440 
-6.40352e-06      9.70390      36.7033 
3.10694e-05      9.49492     -162.595 
-1.26142e-05      7.99311      149.969 
6.40992e-06      13.2089      44.8757 
-3.11475e-05      12.6015      37.7795 
6.40540e-06      3.73633     -142.401 
-1.27165e-05      12.1314      146.704 
1.25791e-05      10.1411     -57.1542 
-3.10268e-05      8.20062    -0.560986 
-2.47919e-05      12.2511     -128.105 
2.49811e-05      9.74994     -87.4151 
6.32350e-06      10.3682     -105.322 
-6.32487e-06      11.6799      53.4246 
-6.31824e-06      8.30477      133.341 
-2.47089e-05      11.4208      126.167 
6.31982e-06      9.48724     -92.2937 
1.24535e-05      4.30297     -62.5993 
-1.24665e-05      12.3037      44.8666 
-1.24003e-05      4.03621     -53.8630 
-6.30813e-06      10.3814      165.269 
6.29373e-06      6.01923     -30.9968 
-6.30793e-06      8.35142     -94.9483 
-6.28982e-06      9.60813     -149.752 
3.70340e-05      10.4203     -118.928 
1.24235e-05      10.4514     -129.020 
-6.26978e-06      7.54084     -160.315 
1.85085e-05      11.5213     -56.2551 
1.23132e-05      10.2414     -178.992 
-2.45607e-05      12.1207      146.781 
2.45152e-05      13.1660     -50.9194 
-1.85566e-05      9.66975     -174.183 
1.22861e-05      7.81253      82.1999 
1.23553e-05      6.73479     -60.4673 
-6.21137e-06      7.99767      125.638 
6.20792e-06      4.75489     -169.829 
6.20030e-06      13.0165     -130.078 
1.22596e-05      10.9000     -34.1583 
-6.19064e-06      14.1596      46.2024 
1.22145e-05      8.66957      45.6523 
6.21096e-06      10.1890     -71.8132 
-6.18235e-06      12.0309      32.0247 
-6.17898e-06      12.2700     -37.9156 
1.22151e-05      5.66847     -52.8874 
-6.17073e-06      8.16889     -14.1703 
1.22935e-05      10.4784      35.6011 
1.22576e-05      10.3459     -105.701 
-6.16550e-06      9.40044      89.5106 
1.22370e-05      9.57584     -29.6708 
1.22072e-05      10.0392      70.4450 
-1.82783e-05      9.29852     -104.068 
-1.82883e-05      14.1737      46.1433 
1.22009e-05      11.9788     -132.156 
-6.14481e-06      7.58001     -112.165 
-1.22081e-05      10.9657     -116.893 
-6.12114e-06      10.2038     -86.0657 
-6.12920e-06      9.01705     -143.842 
-1.21842e-05      13.2805     -130.359 
1.21602e-05      10.1131     -57.1884 
-6.11538e-06      8.27668      133.332 
-6.09821e-06      12.0753      51.7250 
-6.10882e-06      12.2893      44.9332 
-6.10855e-06      8.04600     -155.474 
-1.21016e-05      7.60933      44.3607 
-6.09371e-06      9.59209     -124.553 
6.07617e-06      5.07134      173.663 
6.07999e-06      7.92085     -56.4289 
-6.08996e-06      9.27708      135.000 
-6.07464e-06      9.92408     -123.243 
-6.07052e-06      9.61835     -149.648 
-6.06637e-06      9.38503     -16.4658 
-6.07194e-06      9.42038      89.8768 
6.07602e-06      10.9720     -123.400 
6.07695e-06      10.1951     -71.7091 
6.08059e-06      6.30826     -55.1984 
6.05832e-06      6.52146     -41.0203 
-6.05786e-06      9.05850     -93.6714 
6.05478e-06      10.6012      124.471 
6.05178e-06      9.62463      120.880 
6.04582e-06      10.0564     -126.348 
6.07825e-06      11.2108     -47.4603 
-6.03533e-06      10.2317     -159.756 
6.03037e-06      13.3658      137.790 
-6.02538e-06      7.98538      149.775 
-6.02654e-06      13.2698     -130.169 
-6.02665e-06      3.61065      42.0855 
-6.03183e-06      7.50708      78.6317 
-6.02592e-06      9.56112     -93.8386 
2.56313e-05      10.5652      52.3056 
-1.89883e-05      9.75519     -47.7435 
6.02580e-06      12.5237      131.634 
6.01086e-06      9.50748     -2.28880 
-6.21009e-05      11.9504     -148.412 
2.70708e-05      13.1310     -48.2732 
1.42228e-05      13.0966     -48.8400 
-2.02426e-05      13.2915      40.5445 
3.35461e-05      12.2939      38.6614 
4.00166e-05      12.3390      43.0310 
-2.04470e-05      11.3931     -28.6346 
-2.01329e-05      12.0500      135.537 
-6.89551e-06      13.3063      40.4898 
-1.96733e-05      11.6822     -141.952 
-2.61073e-05      9.57101     -163.989 
1.32887e-05      7.68629      23.2963 
1.31096e-05      13.0837     -48.9043 
-1.29881e-05      11.3698     -138.993 
-6.58384e-06      12.0356      135.470 
1.29473e-05      11.5132      117.632 
-1.30263e-05      12.1428      42.8639 
1.92286e-05      7.92389     -46.8419 
-6.50583e-06      8.87055     -12.5020 
6.51356e-06      10.3533     -18.1198 
6.49280e-06      12.8805     -132.611 
1.28136e-05      10.2200      8.78039 
-6.46235e-06      10.2417     -167.023 
6.43698e-06      7.96558      16.9345 
-6.43668e-06      9.81172     -97.8506 
-1.27509e-05      12.6116     -137.378 
6.42199e-06      10.0987     -62.7743 
-6.41711e-06      10.8282     -124.157 
-6.38766e-06      10.5897      165.229 
6.37210e-06      11.9205      146.149 
-6.35153e-06      13.6542      48.2056 
-6.34520e-06      8.03332      93.2825 
6.34117e-06      8.94905      2.56155 
6.34591e-06      12.8583      133.804 
6.32097e-06      7.23878      28.1962 
6.31596e-06      9.74788     -85.6470 
-6.31141e-06      10.7199     -135.303 
-6.30684e-06      11.1704     -48.9194 
-6.31709e-06      9.10482     -119.041 
-6.30722e-06      5.86465      157.546 
6.31309e-06      10.1741      130.297 
! Tentative model.
! Flux (Jy) Radius (mas)  Theta (deg)  Major FWHM (mas)  Axial ratio   Phi (deg) T \
! Freq (Hz)     SpecIndex
-6.72587e-06      11.9507     -148.411 
