! Center RA: 12 21 31.69052,  Dec: +28 13 58.50011 (2000.0)
! Established model.
! Flux (Jy) Radius (mas)  Theta (deg)  Major FWHM (mas)  Axial ratio   Phi (deg) T \
! Freq (Hz)     SpecIndex
 0.0433414     0.185540     -104.036 
 0.0142687     0.200125     -102.995 
0.00645792     0.171026     -105.255 
0.00238219    0.0300000     -90.0000 
0.00327139    0.0150000     -90.0000 
0.00818896     0.182483     -99.4623 
0.00170196    0.0807775      111.801 
0.00168682     0.156605     -106.699 
 0.0117130    0.0450000     -90.0000 
0.000962403    0.0874643      120.964 
0.00542168     0.100623      116.565 
0.00237732     0.167705     -100.305 
0.000680389     0.108167      123.690 
0.00461447     0.120934      119.745 
0.00209007     0.195576     -94.3987 
0.000720014    0.0474342     -108.435 
0.000723228     0.134164      116.565 
0.000409294     0.129035      125.538 
0.000137280     0.141510      122.005 
0.000268665     0.204022      107.103 
0.000756020     0.222991      109.654 
0.000368340     0.117154      129.806 
0.00177054     0.210000     -90.0000 
0.000474057    0.0335410     -116.565 
0.000468477     0.237171      108.435 
0.000115528     0.127279      135.000 
0.000762293     0.242332      111.801 
0.00165071     0.117154      140.194 
0.000306513     0.256320      110.556 
0.00243421     0.261964      113.629 
0.00136758     0.210535     -85.9144 
0.00119689     0.438092      128.047 
0.00127739     0.225499     -86.1859 
0.00119217     0.479296      110.136 
0.000637957     0.447493      129.560 
0.000583197     0.212132     -81.8699 
0.000649221     0.729006      126.634 
0.000325992     0.346302     -94.9697 
6.34768e-05     0.828402      121.675 
0.000123745    0.0474342     -71.5651 
0.000123701     0.457193      131.009 
0.000245474     0.849058      122.005 
0.000123810     0.345326     -92.4896 
6.03591e-05     0.360312     -92.3859 
! Tentative model.
! Flux (Jy) Radius (mas)  Theta (deg)  Major FWHM (mas)  Axial ratio   Phi (deg) T \
! Freq (Hz)     SpecIndex
0.00100018     0.483037      126.158 
8.61868e-05    0.0750000      126.870 
0.000731853    0.0670820      116.565 
0.000758795     0.504009      126.529 
0.000227407    0.0335410     -116.565 
0.000524800     0.694874      122.661 
0.000832020    0.0474342     -108.435 
0.000218821    0.0807775      111.801 
0.000147181      2.33499      110.298 
7.35125e-05     0.225000     -90.0000 
0.00111822     0.240000     -90.0000 
0.00100284      2.32093      110.426 
0.000343268     0.492037      127.569 
0.000929214     0.715612      123.024 
0.000270322    0.0948683      108.435 
0.000306590    0.0618466     -104.036 
0.000339400     0.109202      105.945 
0.000771579     0.242332      111.801 
0.000181900      2.32621      110.772 
0.000636821     0.736376      123.366 
0.000118090      2.27353      110.468 
0.000454880     0.255000     -90.0000 
5.77775e-05      2.34024      110.642 
0.000223506      2.25425      110.244 
5.68618e-05      2.54775      109.608 
0.000423116      2.56693      109.811 
0.000367257     0.757166      123.690 
0.000708929     0.255441     -86.6335 
0.000306584      2.23500      110.016 
0.000104001      2.34907      110.171 
0.000148491     0.777978      123.996 
0.000142544     0.237171      108.435 
4.91237e-05      2.57205      110.126 
9.71053e-05     0.798812      124.287 
0.000142959      2.59131      110.323 
0.000363098      2.21579      109.784 
0.000141110     0.495227      125.134 
4.75595e-05     0.811249      123.690 
9.22891e-05      2.35806      109.703 
0.000318992     0.819665      124.563 
0.000404204     0.270416     -86.8202 
0.000138145     0.261964      113.629 
9.18508e-05      2.59656      110.634 
0.000389072    0.0600000     -90.0000 
0.000132940      2.61590      110.825 
4.48308e-05     0.474342      124.695 
0.000129137     0.123693      104.036 
0.000208081     0.316425      121.430 
0.000128256     0.486749      123.690 
0.000171976     0.840536      124.824 
8.48710e-05      2.35304      109.359 
4.30518e-05      2.64068      111.318 
8.47285e-05     0.285394     -86.9872 
4.25829e-05      2.67959      111.682 
4.21761e-05      2.21076      109.418 
0.000205193      2.69908      111.861 
0.000204337     0.849191      125.655 
8.30567e-05     0.315000     -90.0000 
0.000528447      2.19662      109.549 
0.000197259     0.478592      122.196 
4.08532e-05     0.330000     -90.0000 
4.07911e-05     0.218403      105.945 
0.000159294     0.330341     -87.3974 
0.000274537      2.89387      107.496 
0.000155948      2.34811      109.014 
4.00695e-05     0.138293      102.529 
3.95917e-05     0.732393      124.992 
7.78563e-05     0.241868     -82.8750 
0.000229051     0.858021      126.469 
0.000507440    0.0750000     -90.0000 
3.87899e-05     0.152971      101.310 
0.000330100     0.345326     -87.5104 
0.000149424      2.71860      112.036 
3.82421e-05     0.200125      102.995 
0.000363394     0.324500      123.690 
0.000477108      2.90373      107.124 
0.000276974     0.229456     -78.6901 
0.000109499     0.476471      118.179 
0.000177002      2.35748      108.550 
7.09306e-05     0.182483      99.4623 
0.000105554     0.720156      125.676 
0.000178574     0.879005      126.674 
0.000103022     0.150748      95.7106 
0.000314382      2.90818      107.407 
0.000169505     0.469574      116.565 
0.000168479      2.72427      112.329 
0.000264104     0.888046      127.451 
0.000498633     0.360312     -87.6141 
0.000132021      2.19164      109.179 
0.000159296      2.35275      108.204 
3.27737e-05     0.476707      114.146 
0.000119406     0.708025      126.384 
9.32348e-05     0.165680      95.1944 
0.000241212      2.17748      109.309 
0.000211295     0.470771      112.479 
3.15166e-05      2.73815      112.209 
6.20804e-05     0.214767     -77.9052 
0.000211663     0.897246      128.211 
0.000119207      2.74385      112.499 
0.000118572     0.345326      124.380 
0.000481443      2.91807      107.038 
5.96152e-05      2.44872      115.780 
0.000748113     0.218403     -74.0546 
5.89519e-05      2.34811      107.856 
5.72758e-05     0.150000      90.0000 
2.88613e-05      2.45529      116.095 
0.000243501    0.0912414     -80.5377 
0.000164739     0.909079      127.626 
8.25635e-05     0.180624      94.7636 
2.85858e-05      2.33384      107.969 
5.62681e-05      2.46192      116.409 
5.57463e-05      2.08073      111.571 
0.000378551     0.918314      128.367 
0.000108928     0.465242      110.772 
0.000578826     0.375300     -87.7094 
2.78453e-05      2.32925      107.618 
0.000106716      2.48878      116.874 
2.75285e-05     0.594348      132.955 
0.000398293      2.07239      112.109 
7.99342e-05      2.32476      107.266 
2.69851e-05      2.74963      112.788 
2.68077e-05      2.59062      118.346 
0.000125157     0.763823      109.502 
0.000127862      2.61095      118.479 
0.000125309     0.474342      108.435 
7.64007e-05      2.92250      107.319 
9.61907e-05     0.195576      94.3987 
5.04831e-05     0.604669      133.995 
2.57735e-05      2.17257      108.935 
5.06995e-05      2.88476      109.754 
5.04632e-05      2.32035      106.912 
2.54180e-05     0.165000      90.0000 
0.000260161     0.333054      125.838 
0.000650007      1.19897      133.479 
0.000100462     0.927699      129.094 
0.000116506      2.46863      116.721 
7.20185e-05      2.31603      106.557 
0.000264923      2.63129      118.610 
9.38329e-05     0.180000      90.0000 
0.000137865      2.88987      110.034 
7.68070e-05     0.817328      132.769 
2.37316e-05     0.615183      135.000 
0.000111697     0.469814      106.699 
0.000153783     0.758947      108.435 
4.56832e-05     0.604669      136.005 
4.58250e-05      2.31180      106.201 
0.000105547     0.135831      83.6598 
0.000175827      2.93241      106.952 
4.43797e-05      2.30766      105.843 
0.000175480     0.827587      133.531 
0.000535534      2.06423      112.652 
0.000105486      2.48136      103.280 
0.000103864     0.615549      136.975 
0.000178411     0.195000      90.0000 
0.000120568      2.44849      116.565 
6.23673e-05      2.89504      110.313 
0.000159202      2.95115      107.146 
2.10199e-05      2.29965      105.124 
4.08291e-05      2.49596      103.201 
0.000120891     0.390288     -87.7974 
0.000115724     0.465725      104.931 
2.02161e-05      2.29578      104.763 
6.56307e-05     0.768668      107.021 
5.87347e-05      2.90028      110.591 
0.000449996     0.848793      133.568 
0.000127888    0.0764853     -78.6901 
0.000147995      2.49257      102.865 
0.000287876     0.391152     -85.6013 
1.95412e-05      2.29201      104.400 
0.000111243     0.626598      137.911 
0.000127275      2.63851      118.896 
0.000101391      1.20934      133.995 
3.61969e-05      2.68265      105.901 
1.89183e-05      2.28832      104.036 
9.74030e-05     0.764412      105.945 
0.000209935      2.96992      107.337 
7.25749e-05      2.90559      110.868 
0.000390922      1.22017      133.506 
3.68627e-05     0.120934      82.8750 
1.85827e-05      2.28473      103.671 
1.84168e-05      2.67858      105.593 
5.28859e-05     0.210535      94.0856 
1.83751e-05      2.42838      116.407 
3.58752e-05      2.28123      103.305 
0.000143866      2.36801      116.727 
1.78440e-05     0.138293      77.4712 
1.77808e-05      2.60504      103.316 
0.000181894     0.462088      103.134 
0.000161834     0.637809      138.814 
-4.69331e-06      2.29245      102.854 
0.000155673     0.123693      75.9638 
6.67550e-05      2.91097      111.143 
3.35478e-05      2.65165      118.740 
3.37065e-05      2.28916      102.488 
0.000119287     0.760427      104.859 
0.000189736      2.47795      102.943 
0.000318012     0.210000      90.0000 
8.81121e-05      2.60162      102.995 
0.000364598     0.406110     -85.7636 
6.40902e-05      2.28596      102.121 
0.000199562      2.70541      106.425 
0.000197543      2.65890      119.023 
0.000104527      2.98873      107.526 
1.59941e-05      2.37479      117.051 
0.000176155      2.05040      112.813 
0.000155944      2.99328      107.799 
0.000572890      2.36144      117.216 
6.13786e-05      2.91641      111.418 
4.54365e-05      2.28286      101.753 
0.000181829      1.23055      134.012 
0.000197964     0.649173      139.686 
5.77578e-05      2.29456      101.310 
4.30882e-05      2.93586      111.584 
7.88664e-05     0.756720      103.761 
0.000204979      2.05626      113.199 
2.84027e-05     0.106066      81.8699 
1.42850e-05      2.58366      102.745 
0.000237720      1.24138      133.531 
0.000106225      2.29166      100.942 
6.64040e-05      2.94142      111.856 
0.000484519     0.458912      101.310 
1.35628e-05      2.87640      106.356 
0.000348614      1.51611     -27.0721 
0.000108308     0.753293      102.653 
7.05577e-05      2.87222      106.069 
3.78055e-05    0.0912414      80.5377 
0.000232939     0.422404     -83.8845 
7.40509e-05      1.67920      108.759 
0.000179091      3.01216      107.984 
8.37288e-05      2.94703      112.126 
8.40176e-05      2.28886      100.574 
0.000394395      1.25176      134.029 
0.000143101      2.66621      119.305 
0.000122708      1.67443      108.273 
8.73179e-05      2.70121      106.120 
4.47329e-05    0.0474342      108.435 
0.000105515     0.750150      101.535 
0.000166095      2.30092      100.138 
0.000102968     0.660681      140.528 
0.000104461      3.01683      108.255 
0.000399922      2.95271      112.396 
0.000764883      1.62783      16.5981 
0.000272865     0.210535      85.9144 
0.000375640      5.30850      123.825 
0.000192097     0.439118     -82.1467 
0.000140461     0.222991     -70.3462 
9.52884e-05      2.16094      31.3730 
0.000100725    0.0335410      116.565 
4.02716e-05      5.18907      133.243 
4.01126e-05      2.17810      36.3175 
2.04738e-05     0.747295      100.408 
1.98109e-05    0.0212132     -135.000 
2.96871e-05      2.06221      113.582 
4.84508e-05      1.66979      107.784 
7.65092e-05     0.901124      87.1376 
3.85833e-05     0.838525      132.825 
9.11929e-05      5.20000      133.130 
6.33891e-05      2.16603      36.5525 
4.47401e-05      2.04848      113.749 
0.000157799     0.651249      141.546 
9.37153e-06      2.88663      105.986 
1.84223e-05     0.225000      90.0000 
4.44425e-05      2.29833      99.7697 
3.61171e-05      1.64652      16.9492 
0.000258271    0.0212132      135.000 
0.000207287      3.03579      108.435 
4.45656e-05      4.34534      125.446 
0.000188438      1.14630      42.8789 
0.000182186      1.50277     -27.3324 
0.000115577      2.72839      106.941 
6.85224e-05      1.79355      104.036 
0.000250191     0.916106      87.1844 
0.000142788      1.14728      41.8202 
8.83533e-06      1.66527      107.292 
8.81665e-06      2.62718      96.5569 
0.000178633      5.85000      112.620 
3.78652e-05      2.14814      31.5813 
5.55186e-05      2.28616      100.204 
9.10321e-05     0.453982     -82.4054 
8.08022e-05      1.36310     -24.0265 
8.64566e-05      2.62551      96.2317 
7.48961e-05      2.35462      116.892 
4.22574e-05      1.26259      133.556 
5.38522e-05      2.17500      36.8699 
-0.000792622     0.742462     -8.13010 
4.87635e-05      5.31265      123.600 
0.000183260      4.33666      125.284 
1.65899e-05      2.67358      119.585 
7.44461e-05      5.21027      133.250 
0.000108232     0.495227     -88.2643 
8.69686e-05      2.05456      114.132 
3.22781e-05      1.27297      134.045 
5.96371e-05      2.16603      30.8277 
1.58852e-05      2.68663      119.427 
0.000117030      1.36360      129.644 
5.06371e-05      1.78997      103.570 
0.000108454      3.59753      133.141 
6.51291e-05      2.69404      119.705 
2.27876e-05      2.00647      28.0977 
7.72825e-06     0.342053      127.875 
0.000171962      2.16302      37.1083 
0.000158040      1.04957     -120.964 
0.000159715      1.33778     -17.6223 
0.000335914      5.85579      112.755 
9.47342e-05      2.75159      107.447 
5.27050e-05      5.06185      136.801 
4.74074e-05     0.456207     -80.5377 
7.20713e-05      2.01274      27.5199 
6.78398e-05      1.34942     -24.2858 
0.000324222     0.476707      102.724 
4.11732e-05     0.510000     -90.0000 
7.63389e-05      2.62393      95.9061 
4.03229e-05      1.15850      41.3255 
6.07175e-05      2.28355      99.8336 
1.33187e-05      2.91961      106.107 
7.68046e-05      1.11496      17.2161 
0.000294827      1.37518      129.245 
0.000337881     0.510221     -88.3153 
0.000114319      3.58729      132.967 
6.26597e-05     0.921005      127.057 
1.29903e-05      2.70150      119.982 
0.000234086      1.12929      16.9908 
4.11672e-05     0.228473     -66.8014 
8.89588e-05      2.34163      25.4160 
6.45523e-05      5.22056      133.370 
1.85600e-05      2.72199      120.097 
1.24420e-05      5.32024      121.629 
6.19933e-05      4.70142      136.939 
6.17274e-06      2.93820      106.307 
6.06044e-05      2.06074      114.513 
8.68741e-05      5.31239      121.491 
0.000168943     0.931933      86.3086 
6.20221e-05      2.80356      107.756 
1.76272e-05      2.72955      120.370 
6.06923e-05      2.15108      37.3493 
0.000110727     0.912044      126.304 
5.31998e-05      2.34811      117.384 
3.52108e-05      2.12265      32.0054 
1.69706e-05      3.88572      132.497 
5.79172e-05      5.31686      123.959 
1.68462e-05      2.75008      120.481 
5.14953e-05      2.62243      95.5802 
0.000245647      1.05737     -121.661 
6.10493e-05     0.225499      86.1859 
1.10887e-05     0.458912     -78.6901 
2.21058e-05      4.80473      128.408 
1.61954e-05      1.50972     -27.8381 
2.68598e-05      2.34883      24.9285 
3.69277e-05      3.89680      132.348 
2.64467e-05      2.75772      120.750 
-5.11447e-05      3.36766      120.220 
6.13944e-05      5.25208      133.496 
8.84442e-05      3.56609      132.955 
8.67873e-05      4.79543      128.268 
5.54029e-05      5.84779      112.948 
4.12680e-05      5.09729      143.737 
5.27024e-06      2.95683      106.504 
1.54432e-05      1.35208     -17.4299 
0.000358876      2.47627      22.0592 
3.04139e-05      1.91025      43.0908 
-0.000285840      3.35471      120.349 
4.74235e-05      1.52300     -27.5746 
8.91169e-06     0.777978      109.134 
8.61230e-05      2.80817      108.048 
0.000264019      2.54669      39.5031 
3.43666e-05      3.89587      132.660 
3.35979e-05      2.77828      120.858 
8.09740e-05      1.33331     -17.0079 
6.56622e-05      5.10939      143.837 
4.71134e-05      1.89932      43.4000 
1.88898e-05      1.59325      131.947 
0.000178136      4.31575      125.237 
1.37478e-05      2.28104      99.4623 
0.000101003      5.26241      133.614 
4.94986e-05      5.32525      124.093 
7.80991e-05      3.90692      132.510 
4.81084e-05      5.03003      110.056 
0.000319576      1.12500      16.2602 
5.84197e-05      5.30457      121.353 
0.000210229      5.39742      141.092 
0.000144109     0.663061      142.352 
0.000109986      2.82709      108.243 
4.00420e-05     0.933019      85.3894 
8.67927e-05     0.924175      125.754 
0.000103425      5.86160      112.891 
4.66266e-05      2.78601      121.122 
8.86963e-06      2.97549      106.699 
3.05696e-05     0.148492      45.0000 
5.50322e-05      5.31476      133.971 
3.74588e-05     0.679154      83.6598 
-0.000278102      4.43295      110.397 
5.16198e-05      1.88845      43.7127 
1.28634e-05     0.465725     -75.0686 
8.82608e-06      1.13535      43.3940 
0.000311824      1.58213      132.310 
-0.000413281     0.740490     -6.98106 
4.15522e-05      3.62969      132.990 
8.55094e-06      2.13538      31.7921 
1.23882e-05      1.80112      102.995 
6.32495e-05      2.13512      131.868 
0.000103047      5.12151      143.936 
2.85065e-05     0.773191      108.083 
1.23035e-05      2.02606      27.3239 
4.30092e-06      1.64221      16.4486 
6.36740e-05      1.12430      45.0000 
1.27589e-05      4.77709      112.135 
4.98461e-05      4.78615      128.127 
8.34274e-06      5.35685      134.206 
-0.000279708      4.52486      130.024 
4.25220e-06      1.34332     -23.7026 
8.34876e-06    0.0150000      180.000 
4.86863e-05     0.947971      85.4622 
5.92742e-05      1.53631     -27.3156 
0.000115686      2.63736      95.5485 
7.07974e-05      4.77146      111.969 
3.87790e-05     0.159452      41.1859 
5.96838e-05      5.33368      124.226 
4.28591e-05      1.87764      44.0290 
0.000193057      2.83182      108.531 
1.52768e-05      1.64823      103.151 
8.64080e-05      5.45689      130.653 
5.43235e-05      4.77691      127.985 
4.58193e-05      2.14516      132.166 
0.000216874     0.525000     -90.0000 
0.000144398      5.85365      113.083 
1.84498e-05     0.469814     -73.3008 
-3.00622e-05      5.18629      115.527 
1.47117e-05      2.27862      99.0903 
5.96358e-05      3.90605      132.821 
4.26692e-05      2.80660      121.226 
4.60493e-05      2.18702      36.6341 
-0.000160961      1.05321     -100.670 
4.01215e-05     0.949276      84.5597 
2.10886e-05      3.65089      133.002 
-0.000362447      1.47718      32.5604 
5.97767e-05      2.55828      39.2894 
5.75000e-05      4.76769      127.843 
2.71394e-05      3.05960      108.879 
2.77406e-05     0.695845      82.5686 
7.24833e-05      4.76587      111.801 
4.51305e-05      1.86688      44.3489 
3.05898e-05      1.02396      31.8274 
6.89650e-05      1.60920      16.2388 
3.27293e-05     0.768960      110.556 
-0.000165904      5.17985      115.378 
0.000143510     0.171026      37.8750 
0.000116220      1.34206      25.1330 
1.32435e-05      2.06701      114.891 
5.68501e-05      5.29678      121.214 
2.36036e-05      3.97825      122.372 
8.32222e-05      1.63362      103.271 
-0.000273136      3.36013      119.999 
4.50916e-05     0.965725      83.7581 
2.36383e-05      2.04446      93.7861 
9.50157e-05      4.75850      127.701 
6.59770e-06     0.460136     -70.9744 
-0.000119928      2.49438      47.1932 
2.78025e-05      1.40015     -4.91657 
-0.000300116      1.86054      91.3859 
1.54185e-05      5.36732      134.321 
2.69657e-05     0.774355      111.595 
8.53071e-05      2.04353      93.3665 
4.05271e-05      5.13364      144.034 
0.000723285      4.32442      125.399 
2.77950e-05      5.46398      140.235 
4.30781e-05      1.85619      44.6726 
7.35470e-05      2.47068      21.7368 
1.53425e-05      2.95846      112.665 
9.43186e-06     0.915492      124.992 
0.000188470      5.34213      124.359 
5.84043e-05      4.76032      111.634 
4.96593e-05      2.81441      121.487 
-5.60146e-05      4.53635      129.903 
0.000103233      2.19907      36.4009 
-0.000334332      4.44701      110.330 
0.000152399      5.38801      141.216 
6.26854e-05      1.38683      128.853 
4.43081e-05      2.05341      115.067 
3.07785e-06      3.97024      122.189 
2.83224e-05      1.55653     -27.5528 
3.34276e-05      1.17776      133.452 
0.000243129      3.34823      111.277 
6.49124e-05     0.780000      112.620 
0.000180521      3.80852      119.493 
0.000270731      5.85955      113.218 
-0.000136050      4.52675      129.757 
0.000174687      1.10645      15.7320 
7.22438e-05      2.04270      92.9464 
1.11491e-05     0.680974      82.4054 
5.88336e-06      3.50333      132.571 
2.52681e-05     0.982357      82.9835 
0.000103032      2.43878      19.7723 
2.82559e-05      3.91626      132.982 
1.16785e-05      4.77427      111.567 
8.52137e-06     0.465242     -69.2277 
7.30261e-05     0.675000      143.130 
6.02876e-05      1.59480      16.3895 
0.000108245      4.74934      127.558 
0.000105407      5.12484      144.170 
0.000143795      1.84555      45.0000 
0.000129566      4.76877      111.400 
2.67901e-05      3.48213      132.556 
-0.000299827      1.03847     -100.823 
5.30880e-05     0.984302      82.1169 
8.27640e-06      5.23927      129.890 
5.11021e-05      5.47358      140.114 
2.16239e-05     0.409695      66.2505 
2.71455e-05      5.27277      133.732 
2.78397e-06      1.27297      21.4253 
7.12124e-05      5.16545      128.634 
1.55232e-05      1.38521     -4.96974 
-0.000193849      2.48339      46.9581 
5.38309e-05      2.04198      92.5261 
1.33109e-05      5.28903      121.075 
2.57540e-05      1.28694      21.1813 
-0.000171099      2.13195      45.2851 
8.93644e-05      5.47804      130.669 
-0.000282593      1.86097      91.8476 
5.70431e-05      5.22777      129.995 
5.37505e-05      4.95227      125.134 
-2.32376e-05      1.42382     -41.5834 
2.30538e-05      2.94034      105.383 
3.57972e-05      2.04138      92.1055 
3.16041e-05     0.921005      59.6764 
4.59808e-05      2.82227      121.747 
-3.53432e-05      3.11892      102.499 
1.26224e-05      1.54325     -27.8104 
0.000141162      1.32850      25.4077 
0.000187559      5.13701      144.268 
2.54759e-06     0.423468      67.0679 
-0.000389441      3.56297      117.860 
-0.000114127      4.53829      129.636 
0.000146932     0.540000     -90.0000 
2.83524e-05      5.30188      120.992 
-8.81793e-05      1.43507     -41.1859 
2.71225e-05     0.429535      65.2249 
2.51015e-06      2.38141      116.565 
0.000738132      2.04006      89.5787 
7.45180e-06      4.74021      127.414 
0.000102044      2.93640      105.101 
0.000107842      1.39629      129.333 
2.49377e-06     0.666108      82.2348 
-0.000183594      4.94431      117.265 
4.53994e-06      2.36130      116.402 
0.000132690      1.14630      132.879 
2.70733e-05      1.53000     -28.0725 
-5.88253e-05      5.12544      123.783 
1.44145e-05      1.32960     -23.9625 
-6.11084e-05      1.81896      121.855 
1.17612e-05      4.92439      133.025 
-0.000290060      3.13356      102.440 
-0.000132915      5.59743      125.181 
0.000104358      2.81285      108.338 
4.18471e-05      1.51678     -28.3391 
0.000149519      2.43375      19.4400 
4.31172e-05      3.92651      133.142 
4.52979e-05      1.10247      14.9816 
4.65611e-06      1.31590     -24.2277 
2.03551e-05      2.53513      39.7188 
-1.57415e-05      5.12135      124.016 
7.10854e-05      2.05981      115.445 
2.75147e-05      1.50360     -28.6105 
2.21854e-05      1.30853     -25.0963 
1.12405e-05     0.913523      60.4885 
0.000143253      4.94365      124.992 
4.48067e-06      1.28160      20.5560 
-0.000278717      1.83172      121.608 
1.09021e-05      4.91417      132.897 
1.46904e-05      1.49044     -28.8866 
4.39618e-05      1.07802     -121.921 
0.000582411      4.76332      111.232 
0.000205723      4.77954      127.733 
6.54211e-06      1.15850      4.45560 
-1.76303e-05      4.54787      129.781 
4.38507e-06      2.65377      95.8395 
-0.000170430      5.13379      123.922 
0.000227110      1.83497      45.3312 
1.44812e-05      1.47733     -29.1676 
3.73928e-05     0.893099      60.8519 
2.04973e-05      5.29417      120.852 
4.96956e-05      2.52557      39.4570 
-1.08783e-05      1.51619      115.805 
0.000147714      1.12089      15.5241 
-0.000133322      4.54985      129.515 
-0.000449697      1.35640      141.736 
1.05234e-05      1.46425     -29.4537 
-7.89671e-05      1.50972      115.292 
-0.000148466      1.44639     -40.7946 
2.63999e-05     0.666108      144.162 
-6.37967e-06      2.58944      125.808 
1.87469e-05      1.29496     -25.3777 
1.26393e-05      1.45121     -29.7449 
-8.40184e-05      1.46456      32.8763 
5.20670e-05      2.95481      105.306 
2.10498e-06      1.29566      20.3231 
-0.000147722      2.60162      125.614 
5.12205e-05      1.57621      16.0203 
4.28533e-05      3.56158      138.928 
8.24208e-06      1.38171     -32.1372 
8.14778e-05      1.56180      16.1722 
-0.000321941      2.12143      45.5729 
-0.000250064      1.74581      40.1207 
8.07441e-06      1.36459     -33.3407 
-2.05026e-06      4.17259      121.176 
-0.000212661     0.316425     -174.560 
-0.000233505      4.54562      109.870 
-4.38458e-05      4.15976      121.283 
2.02606e-06      4.91499      132.650 
9.84631e-06      2.20235      35.8552 
8.46789e-05      5.48783      130.788 
-2.49800e-05      4.55941      129.661 
1.57923e-05      1.26116     -26.8698 
5.73598e-06      2.34787      116.565 
1.98218e-06      4.90580      132.274 
1.11524e-05      2.12514      131.566 
0.000188754     0.900500      60.0184 
0.000164754      5.48321      139.994 
1.99432e-05      5.21629      130.101 
1.15293e-05      1.35208     -33.6901 
2.21769e-05      3.93746      132.993 
1.50455e-05      4.89683      131.896 
-0.000312667      5.58518      125.269 
0.000104002      2.08019      33.2317 
-9.58007e-05      5.64138      109.736 
0.000168730      2.51401      39.6743 
1.47421e-05      1.61903      103.392 
-0.000113986      4.56143      129.395 
0.000143494      2.83019      122.005 
2.60245e-05      1.22826     -28.4429 
0.000317212      5.37862      141.340 
-5.47609e-05      2.73745      33.6030 
0.000287484      5.35061      124.492 
-0.000327591      4.44775      122.886 
-0.000107627      1.48977      115.017 
0.000138215      4.93507      124.849 
-0.000309954      4.62431      114.736 
6.54018e-05     0.490433     -66.5713 
0.000150904      1.57107      132.678 
2.11007e-05      1.34808     -34.5742 
0.000313347      1.77995      102.162 
9.02431e-06      1.00902      11.1429 
3.84311e-05      2.93253      104.818 
1.64551e-05      1.40584      129.806 
7.11888e-06     0.654007      143.393 
-0.000380438      5.11377      138.925 
1.82327e-06      5.28649      120.713 
3.99046e-05      1.38472      129.726 
1.96458e-05     0.980638      83.8534 
2.22114e-05      4.88682      131.765 
4.38995e-05      1.21509     -28.7798 
-6.05221e-05      4.14695      121.390 
4.64324e-05      2.07981      115.641 
-2.20657e-05      2.32398      129.237 
0.000240077      5.56306      115.045 
6.90213e-06      2.11394      131.836 
1.50644e-05      2.34125      117.058 
-2.55586e-05     0.289698     -21.2505 
-0.000592573      2.74578      33.8637 
5.04877e-06      1.07016     -121.239 
5.04810e-06      2.33446      116.730 
-8.42684e-05      1.45198      33.1976 
1.15938e-05      2.21452      35.6279 
0.000109412      1.11697      14.7827 
5.60892e-05     0.350179      136.736 
4.08143e-05      2.10396      131.532 
-1.78080e-05      3.35266      119.777 
-0.000250393      1.45778     -40.4095 
-0.000131389      5.14218      124.061 
0.000140139      1.39435      130.200 
1.44959e-05     0.754934      110.956 
-0.000216705     0.295466     -23.9625 
-3.41357e-05      5.17343      115.228 
6.57224e-06      3.79547      119.604 
3.08397e-05      1.33222     -35.8377 
3.68419e-05      4.77794      118.094 
-5.88999e-05      2.31452      128.950 
0.000115324     0.150000      36.8699 
-2.68663e-05      4.57303      129.276 
0.000105396      5.62406      136.729 
3.49573e-05      3.81593      119.689 
2.14610e-05      4.87685      131.634 
5.80061e-05     0.162250      33.6901 
6.27481e-06      2.95089      105.025 
9.44737e-05      5.27885      120.573 
2.50366e-05      1.09078     -121.504 
6.79804e-05      2.20505      89.6102 
-4.98243e-05      1.48348      114.492 
0.000129165      1.82446      45.6662 
4.24135e-05      1.20197     -29.1241 
0.000191716      2.42880      19.1064 
2.20614e-05      1.00623      10.3048 
-1.23021e-05     0.806102      45.0000 
2.10104e-05      5.86745      113.025 
-7.68813e-06      2.87081      96.9022 
0.000156021      3.34281      111.038 
4.54917e-05     0.749700      109.885 
4.38342e-05      5.11269      144.071 
-3.72093e-05      3.36569      119.650 
-3.05395e-06      4.56355      129.130 
-6.21148e-05      4.57520      129.012 
-9.04986e-06      1.69208      24.0656 
-7.09610e-05      2.86904      96.6048 
2.34239e-05     0.351461      140.194 
-6.11201e-05     0.816777      44.2559 
-0.000111087      4.93099      117.345 
0.000113997      1.54740      16.3269 
0.000169381      4.33313      125.561 
-9.44204e-05      1.70578      23.8602 
-4.35904e-05      4.13415      121.499 
8.03141e-05      2.06766      33.4595 
0.000107016      5.83379      134.583 
1.13650e-05      2.65089      95.1944 
-0.000358530      4.98544      108.053 
7.36876e-05      2.49289      39.6290 
7.70072e-05      2.09405      131.225 
0.000117163     0.496588     -64.9831 
2.89148e-06      1.62257      103.908 
2.34923e-05      2.92873      104.534 
-2.60796e-05      1.26259     -133.556 
-1.69481e-05      1.43945      33.5245 
-4.31073e-05      1.47733      113.962 
1.91969e-05      4.86689      131.502 
0.000185599      4.78502      118.252 
1.43378e-06      4.86823      131.252 
0.000329756      5.28315      133.850 
3.68139e-05      1.32900     -36.7406 
3.57457e-05      3.82338      119.884 
4.19934e-06      1.61555      105.068 
-0.000122614      5.15059      124.199 
0.000108225      5.29519      112.133 
1.48571e-05     0.979145      84.7261 
-0.000412646      3.57623      117.747 
6.17331e-06      1.19634     -30.1013 
5.43209e-05     0.340074      138.576 
1.38653e-06     0.442945      61.6992 
-5.30287e-05      2.30512      128.660 
3.04244e-05      5.10055      143.973 
7.25393e-05      4.77038      127.591 
1.96664e-05     0.540208     -91.5911 
-1.35282e-05      1.43538      34.3543 
1.45091e-05      2.75302      41.2447 
1.02808e-05      1.61951      105.581 
-0.000237666      1.09582     -19.1790 
3.93721e-05      2.32790      117.225 
-5.72998e-05      2.47245      46.7208 
0.000300866      1.18889     -29.4759 
-7.37385e-05      3.14821      102.381 
-0.000160510      4.63060      114.905 
1.83431e-05      2.08635      116.012 
6.82259e-06      2.64957      94.8714 
-3.62673e-05      1.47130      113.429 
-3.58232e-05      5.28315      136.150 
1.02509e-05      1.11496      132.274 
-9.49694e-05      4.12634      121.321 
-6.14969e-05      4.18207      126.541 
3.30575e-05      1.34850      25.7100 
-3.67037e-05      1.42302      34.6952 
-4.73358e-05      4.60185      116.732 
-9.66557e-05      4.57746      128.748 
0.000133268      2.56504      89.6649 
1.67145e-05      2.35648      31.4641 
0.000109115      1.13148      14.5889 
1.47518e-05      2.92500      104.250 
3.47952e-05      4.85836      131.119 
-6.95204e-05      1.25176     -134.029 
-0.000289218      3.14203      114.240 
-0.000149398      1.69977      23.3978 
-0.000176256     0.837989      44.2748 
-4.79897e-05      5.16630      115.449 
0.000121994      2.74176      41.4513 
7.80592e-05      1.53301      16.4845 
2.32131e-05      5.08843      143.873 
0.000114942      1.41549      130.272 
1.59930e-05      2.01537      134.397 
2.88690e-05      1.81401      46.0051 
7.41258e-05      2.01570      43.7940 
-5.16208e-05      1.46540      112.891 
1.35479e-05      2.36929      31.2748 
-0.000141165      2.10177      19.5988 
-0.000136307      1.49044      61.1134 
0.000357506      4.77731      111.167 
9.11252e-05      3.93861      121.450 
-8.16543e-05      5.62726      109.787 
9.73576e-06      2.48136      39.8499 
2.72228e-05     0.540833     -93.1798 
0.000194930      2.82550      122.425 
-3.87600e-05      5.29398      136.263 
4.56011e-05      3.85138      120.160 
2.39021e-05      1.09869     -122.171 
3.75924e-05      1.13614      132.325 
-8.27903e-05     0.315357     -177.274 
7.03935e-05      2.19005      89.6076 
-1.65274e-05      1.41557      105.362 
-4.63422e-05      1.41072      35.0419 
-3.15432e-05      3.79100      125.011 
-3.81185e-05      1.84451      121.363 
-9.74675e-05      1.46923     -40.0303 
1.41308e-05      2.38212      31.0875 
-5.18872e-05      2.86735      96.3071 
-5.29688e-05      2.29578      128.367 
3.86933e-05      2.02589      134.700 
6.70493e-05      2.47177      39.5830 
1.73174e-05      2.08419      130.914 
-0.000129461      5.15904      124.337 
3.51456e-06      4.95738      125.518 
1.24880e-05      2.92134      103.965 
0.000105527      5.06747      143.910 
9.05495e-06      2.83817      122.262 
1.15136e-05      4.96611      125.658 
0.000222406      3.33746      110.797 
-2.69743e-05      2.46155      46.4815 
3.56592e-05     0.339411      135.000 
7.23607e-05     0.880028      60.3763 
-2.31503e-05      1.01580      106.294 
2.21364e-06      1.73748     -26.1226 
8.50516e-06      4.77182      118.337 
-8.82176e-05      5.31519      136.258 
4.55292e-06      1.01702      127.208 
7.65518e-05      4.35612      114.624 
1.34690e-05      2.39498      30.9022 
-3.30381e-06      2.44168      98.4786 
-0.000149630      1.68060      1.53434 
-0.000110354      2.44394      98.8264 
1.33045e-05      1.80362      46.3479 
-0.000249204     0.301869     -26.5651 
8.17330e-05      2.33480      117.553 
7.87278e-06      4.97487      125.799 
0.000161392      1.33500      25.9892 
2.18918e-05      2.06303      130.872 
6.62412e-05      1.02900      126.703 
2.27979e-05     0.174929      30.9638 
-7.63042e-06      1.41962      105.945 
4.96810e-05      2.05516      33.6901 
9.93549e-06      4.98366      125.939 
-0.000112267      4.57982      128.484 
-6.25672e-05      1.39846      35.3948 
-8.56160e-06      2.08462      103.736 
6.10345e-05      1.54325      15.7924 
1.49359e-05      2.90319      103.749 
2.83585e-05      2.03647      135.000 
-3.28495e-05      5.08130      138.830 
2.22343e-05      1.18737      3.62148 
-0.000102885      4.11856      121.143 
1.40313e-05      4.99248      126.078 
1.18542e-05      2.40786      30.7189 
-6.51606e-05      1.86024      90.9240 
-1.08972e-06      2.41840      45.5026 
-4.59290e-05      2.40772      45.2524 
-5.66333e-05      5.15987      115.299 
4.63182e-05      1.11939     -122.412 
0.000104916      4.84707      131.236 
-7.43696e-06      1.47352      112.126 
-0.000150295      5.02912      131.009 
-8.37836e-06      4.71053      133.710 
6.91203e-05      2.05325      130.556 
1.68137e-05      5.00132      126.217 
3.13249e-06      1.79330      46.6946 
-5.87916e-05      2.28650      128.073 
2.10357e-06      3.93080      121.264 
-0.000135656     0.862337     -103.069 
1.24841e-05      2.42077      30.5375 
-3.79602e-05      1.46793      111.584 
-1.27805e-05      2.31389      103.496 
7.43687e-06      5.17717      128.530 
0.000112864     0.541872     -94.7636 
1.83503e-05     0.187949      28.6105 
-4.09000e-05     0.902497      105.422 
-4.09520e-06      1.42382      106.526 
-5.47961e-05      1.02374     -100.981 
3.56632e-05      5.05536      143.810 
-8.34592e-05      1.75731      39.8056 
-0.000149101      3.74823      128.338 
2.85907e-05     0.977880      85.6013 
1.10000e-05      1.31701     -37.1309 
4.03204e-05      4.36240      114.803 
0.000131642      5.03118      126.392 
-0.000195651      1.68602      23.6002 
-8.52023e-05      5.57294      125.358 
-1.35610e-05      2.10278      104.036 
-3.53180e-05      4.72090      133.841 
-8.60700e-05     0.300375     -177.138 
8.05121e-05      1.20150      2.86241 
0.000123098      2.45065      39.5362 
8.95942e-05      1.72683      11.0171 
1.60297e-05      2.43370      30.3581 
2.82376e-06      5.02229      126.254 
-5.07597e-06      5.07002      138.718 
0.000111104      2.88507      103.530 
4.54680e-05      3.54057      124.296 
-0.000166903      4.55973      109.806 
1.01015e-05      2.66583      95.1652 
-1.88143e-05      5.03759      138.621 
-0.000107342      2.39709      45.0000 
-0.000188809      5.16752      124.474 
1.99329e-05     0.328976      133.152 
3.87548e-05      3.84387      119.967 
0.000126886      2.02611      44.1001 
1.73993e-05     0.201246      26.5651 
-8.42136e-05      1.37100      36.9953 
-7.41182e-05      5.34724      136.364 
8.65656e-06      2.83663      108.818 
-3.00904e-05      3.37873      119.524 
4.14308e-05      2.73054      41.6597 
1.91925e-05      2.44666      30.1806 
4.04345e-05      4.36871      114.981 
1.91593e-05      1.58660     -15.3501 
-9.75628e-07      1.46248      111.038 
-1.93553e-06      1.43820      106.356 
-7.47169e-05      1.23055     -134.012 
1.40331e-05      2.92192      111.692 
-3.03009e-05      5.02634      138.508 
5.76843e-05     0.887539      59.5345 
-2.22527e-05      3.51157      136.212 
0.000112126      1.42524      130.732 
9.64947e-07      1.78305      47.0454 
0.000131048      2.55004      89.6630 
-4.47378e-05      2.86575      96.0090 
1.27618e-05      1.32612     -37.6476 
4.70025e-06      1.77286      47.4002 
-2.35632e-05      5.45944      111.772 
-3.05652e-05     0.898624      104.500 
-2.83045e-06      1.44250      106.928 
3.89434e-05      1.12750     -123.056 
0.000135063      2.04353      130.236 
-2.95646e-05      1.47122      110.283 
2.18844e-05     0.214767      24.7751 
2.98152e-05      2.45963      30.0049 
-5.54445e-05      2.27728      127.776 
3.56938e-05     0.976844      86.4785 
-3.41367e-05      4.98273      138.295 
-2.17939e-05      2.29583      103.219 
6.37743e-06      1.41390      48.8713 
9.07355e-06      4.44091      116.911 
-7.14931e-05      4.11082      120.964 
2.72100e-06      2.84150      109.104 
6.22127e-06      1.76274      47.7591 
-4.52505e-05      5.15348      115.148 
-5.39014e-05      4.60861      116.899 
-0.000123359      2.10685      19.9831 
-5.92983e-05     0.888046      105.680 
1.79524e-06      5.86385      112.563 
1.32437e-05      4.44772      117.084 
3.60317e-05      2.48769      22.6996 
4.65096e-05      1.40408      49.3323 
3.35180e-05     0.318904      131.186 
4.01785e-05      1.02011      126.027 
-8.87144e-07      3.52241      136.380 
-3.52292e-06      3.53278      136.204 
3.46723e-05     0.503115     -63.4349 
-0.000115476      1.09099     -18.4349 
8.19648e-05      5.85811      112.428 
-1.11854e-05      6.02532      115.353 
2.21454e-05     0.228473      23.1986 
5.96050e-05      3.53214      124.095 
-9.98554e-05      5.13265      141.288 
-1.94080e-05      1.46609      109.733 
1.57211e-05      1.55769      15.6422 
2.97763e-05      5.82311      134.687 
7.44330e-05      5.30086      112.283 
-0.000164429      2.38651      44.7454 
-2.89829e-05      3.54362      136.372 
2.47646e-05      2.34178      117.878 
-3.77284e-05      4.97154      138.180 
1.70274e-05      4.45457      117.255 
1.09706e-05      2.88098      110.416 
5.10138e-05      2.47264      29.8311 
1.22512e-05      1.14983      15.1240 
6.60455e-05      1.14826     -123.275 
-0.000126170      4.97118      108.107 
-0.000115271      5.35811      136.475 
9.21615e-06      1.75269      48.1221 
5.23232e-05      1.21648      2.82712 
-4.42482e-05      5.46503      111.918 
-0.000104128      1.35905      37.3758 
-3.32873e-05      4.57050      128.337 
-1.69239e-06      3.16287      102.322 
2.37273e-05      1.31428     -38.0470 
0.000118336      3.33216      110.556 
2.51445e-06      2.72938      42.1042 
2.98079e-05      4.88266      109.938 
-4.36747e-05      6.11192      113.734 
-4.16409e-06      3.19081      103.318 
3.33157e-05      2.00316      129.531 
7.71560e-05      2.74053      41.8940 
-1.86676e-05      4.19413      126.419 
2.52035e-05      4.46146      117.427 
8.75964e-06      1.60107     -15.2080 
-1.21580e-05      3.70138      130.727 
-6.41037e-05      2.26813      127.476 
-3.12400e-05      5.61315      109.839 
-8.10357e-06      3.19430      103.579 
1.60375e-06      1.59007     -27.5320 
-8.77021e-05     0.884110      104.744 
-9.64622e-06      1.22017     -133.506 
3.48416e-05      2.43910      39.7605 
3.58811e-05      4.78874      127.875 
-3.90627e-05      1.76886      39.4945 
2.28853e-05     0.242332      21.8014 
2.14671e-05      5.63435      136.618 
3.89185e-05     0.976038      87.3575 
-3.23342e-06      1.48530      110.082 
1.12925e-05      2.07337      115.267 
1.26814e-05      1.74271      48.4893 
2.00776e-05      2.88624      110.695 
-4.23429e-05      2.86421      95.7106 
-2.49470e-05      1.48022      109.537 
-4.52470e-05     0.285394     -176.987 
-5.84529e-05      4.10312      120.784 
-5.39565e-05      4.96038      138.064 
2.71143e-05     0.895237      58.7070 
-7.72832e-06      4.71010      133.968 
5.02730e-05      1.72975      11.5048 
-1.56720e-06      4.17132      119.515 
-3.11661e-05      1.19897     -133.479 
-2.39280e-05      2.44629      99.1735 
-7.82939e-06      3.20888      103.517 
-2.40829e-05      3.71119      130.903 
4.04202e-05      4.46839      117.597 
-7.56058e-06      4.16395      119.335 
5.30918e-06      5.08305      136.794 
4.10350e-05      1.01136      125.340 
3.36739e-05     0.543323     -96.3402 
-3.19863e-05      4.46035      122.782 
1.60665e-05      5.01020      126.355 
-5.96842e-06      4.18438      119.414 
6.82043e-06      2.35505      117.708 
9.90491e-06      1.20084      2.14759 
9.61209e-06      3.83639      119.773 
3.32784e-05      1.21583      2.12110 
-2.06987e-05      3.21242      103.777 
9.07402e-06      2.87488      43.9430 
2.13939e-05      4.34990      114.444 
1.27183e-05      1.73281      48.8607 
-3.72864e-06      3.55449      136.539 
1.98655e-05      5.16140      144.462 
4.34365e-05      2.42954      39.4885 
6.73849e-06      2.36815      25.9158 
3.70807e-06      1.60339     -27.2842 
-2.78650e-05      3.77601      135.322 
-1.90565e-05      5.14712      114.997 
1.61308e-05      2.64009      29.6237 
1.47488e-05      2.51038      118.556 
1.89994e-05     0.256320      20.5560 
2.93902e-06      5.55673      114.905 
3.35667e-05      1.15656     -123.896 
2.25841e-05     0.309233      129.094 
-1.89489e-05     0.677827      155.136 
-2.62507e-05      6.10590      113.605 
-7.49718e-07      1.47046      108.435 
-7.38413e-06      1.47527      108.988 
-1.09310e-05      2.27452      102.570 
5.09308e-06      1.61555     -15.0685 
-9.53837e-06      5.17143      124.243 
1.01656e-05      2.86410      44.1512 
1.52318e-05      5.01911      126.493 
-1.66382e-05      1.77843      39.8674 
-7.27081e-06      1.46125      107.319 
6.48986e-06      2.89158      110.973 
1.59331e-05      1.35507      26.2814 
-1.87078e-05      5.17989      124.380 
2.23690e-05      4.47536      117.767 
-3.61405e-06      4.72052      134.099 
1.36826e-05      4.83580      131.353 
-1.00734e-05      1.66561      1.54816 
5.03577e-06      2.38165      25.7581 
1.43405e-05      2.53504      89.6610 
2.17336e-06      2.03387      129.914 
5.76547e-06      1.17038     -1.46880 
7.16118e-06      2.37574      122.887 
-1.00005e-05      4.94923      137.948 
5.71737e-06      1.72298      49.2364 
-1.14169e-05      2.25903      127.174 
-1.06977e-05      4.09547      120.604 
4.27350e-06      5.81246      134.791 
4.26857e-06      1.17087     -2.20260 
-3.55461e-06      1.45685      106.756 
-3.54831e-06      1.34716      37.7631 
1.41959e-06      2.49722      118.720 
1.41909e-06      2.85335      44.3610 
7.09553e-07      3.32692      110.314 
7.08139e-07      5.18892      128.427 
