! Center RA: 12 21 31.69052,  Dec: +28 13 58.50011 (2000.0)
! Established model.
! Flux (Jy) Radius (mas)  Theta (deg)  Major FWHM (mas)  Axial ratio   Phi (deg) T \
! Freq (Hz)     SpecIndex
 0.0396384    0.0202604     -90.0000 
 0.0649014    0.0286526     -135.000 
 0.0394231      0.00000      0.00000 
 0.0105939    0.0633577      71.3505 
 0.0235173    0.0446338     -116.996 
 0.0253165    0.0828082      75.8378 
 0.0275025    0.0633577     -108.650 
 0.0300708     0.271765      107.184 
 0.0314499    0.0998015      90.0000 
0.00201942    0.0802914      90.0000 
 0.0130138     0.291183      106.006 
0.00601277    0.0397705     -90.0000 
 0.0164040    0.0600310     -90.0000 
 0.0139077     0.101837      101.476 
0.00354077     0.297155      109.625 
0.00374012     0.145849      105.824 
0.00160800     0.316312      108.392 
0.00370322     0.126477      108.327 
0.000857050     0.360505      109.453 
0.00379725    0.0286526     -45.0000 
0.00253866     0.379669      108.435 
0.00604339     0.253192      108.489 
0.00756869     0.404795      110.283 
0.000559947     0.398226      107.547 
0.00307032     0.423858      109.333 
0.000392066     0.437032      105.945 
0.00113917     0.443026      108.466 
0.00205494     0.538618      105.101 
0.000860133    0.0446338     -63.0042 
0.00161147     0.563425      106.480 
0.00209721     0.582160      105.935 
0.00171274     0.698386      103.230 
0.000154453     0.714035      101.334 
0.00173505     0.718124      102.860 
0.00309959     0.733911      101.023 
0.000896074     0.121759      99.5784 
0.000267646     0.495028      104.036 
0.000551729     0.607364      107.248 
0.00157117     0.753070      100.739 
0.00357816     0.664933      105.714 
0.000450268     0.769565      98.9755 
0.000133672     0.788842      98.7544 
0.000936997     0.851327      99.4872 
0.000119315     0.626742      106.699 
0.000925411     0.513977      103.509 
0.00105868     0.871317      99.2676 
0.00180464     0.894598      100.292 
0.000435347     0.645453      106.202 
0.000544135     0.490508      101.740 
0.00176127     0.386554      111.285 
0.00223753     0.509625      101.293 
0.00205260     0.170734      110.586 
0.000685303     0.247514      104.036 
0.00412946    0.0802914     -90.0000 
0.000622930     0.913801      100.073 
0.00291099    0.0720098      56.4755 
0.000841696     0.917561      101.319 
0.00114874     0.937436      101.076 
0.000116537     0.486913      99.4914 
0.000856410     0.772985      100.459 
0.000342397     0.266484      103.019 
0.000213955     0.957327      100.843 
5.46420e-05     0.792179      100.203 
0.000206017     0.878599      101.828 
0.000559343     0.506166      99.1272 
0.000712100     0.980435      101.792 
0.000552897     0.858779      102.105 
0.000200203     0.684458      105.255 
4.64269e-05     0.545983      113.747 
0.000211302     0.554452      115.663 
8.56881e-05     0.400469      87.1001 
0.00206074     0.101837     -101.476 
0.00100387      1.00028      101.554 
8.11874e-05     0.381773      84.0205 
0.000506197     0.526180      98.7772 
0.000613459     0.863255      103.420 
0.000282668     0.384412      81.0157 
0.000325752     0.563176      117.453 
7.29013e-05     0.503350      96.8496 
0.000101793     0.411965      112.829 
0.000131950     0.749560      99.2171 
6.78846e-05     0.367749      112.431 
0.000384449     0.572799      119.251 
0.000235530     0.523472      96.5851 
8.63205e-05     0.388092      78.0600 
6.36403e-05     0.373757      74.5128 
6.30764e-05     0.394056      113.929 
9.18742e-05      1.02414      102.397 
0.000672545     0.215843      111.838 
0.000389582     0.362375      83.6991 
4.60486e-05     0.549419      100.466 
0.000129666     0.529508      100.864 
0.000628019     0.197181      114.029 
0.000294862     0.882975      103.115 
8.61331e-05    0.0446338      26.9958 
0.000285143     0.703300      104.837 
0.000684223    0.0397705      0.00000 
0.000195894     0.887605      104.342 
7.83405e-05     0.572781      114.786 
3.94985e-05     0.342244      83.3269 
0.000101603     0.365154      80.5377 
0.000313633     0.345185      79.9848 
0.000438643     0.907248      104.025 
3.74927e-05     0.581230      116.532 
0.000200569     0.501338      94.5500 
0.000100581    0.0633577     -71.3505 
0.000705369      1.02868      103.499 
0.000187242    0.0633577      18.6495 
3.25473e-05     0.722903      104.426 
0.000477205     0.912370      105.259 
0.000529641      1.06740      103.001 
0.000232796     0.500168      92.3215 
8.75756e-05     0.302778      82.4523 
0.000111301     0.892839      105.601 
5.72436e-05     0.325253      79.3641 
0.000217627     0.582967      120.989 
0.000875174      1.18945      106.606 
2.90581e-05     0.401929      84.3213 
0.000447242    0.0720098      33.5245 
2.83005e-05     0.447333      116.608 
2.72951e-05     0.420241      115.375 
0.000221580     0.306099      78.6901 
7.85553e-05     0.600426      119.994 
0.000191901     0.429314      117.819 
0.000173912     0.520413      92.2312 
2.49666e-05     0.422095      84.5935 
2.43033e-05     0.223834      116.479 
0.000409197     0.610413      121.580 
8.89032e-05     0.404436      81.4640 
0.000130529     0.205897      118.994 
4.37957e-05     0.520018      90.0000 
0.000220678     0.898283      106.800 
6.54210e-05     0.540658      92.1476 
0.000213228     0.310708      75.0240 
0.000205354     0.438758      120.073 
0.000171488     0.540279      90.0000 
0.000598703    0.0848966      45.0000 
0.000137808     0.407936      78.6487 
1.91220e-05     0.233573      120.932 
0.000477300      1.21473      107.248 
1.85146e-05     0.271820      126.016 
5.24685e-05     0.300155      126.870 
3.49412e-05     0.898473      110.842 
1.72883e-05     0.593248      122.605 
0.000159182     0.559789      90.0000 
0.000125519     0.895778      113.709 
0.000384686     0.621263      123.172 
0.000151097     0.316312      71.6080 
8.00470e-05     0.312731      129.841 
4.55640e-05     0.766666      97.4798 
6.62323e-05     0.466502      120.980 
1.50975e-05    0.0896014      63.6495 
5.83833e-05     0.325575      132.478 
0.000154089     0.427819      79.1828 
4.27587e-05     0.449253      122.310 
2.87240e-05     0.783776      95.8798 
1.43859e-05     0.764371      96.0296 
5.57751e-05     0.560155      87.9272 
4.21896e-05     0.903799      114.842 
2.75333e-05     0.919974      90.0000 
7.98707e-05     0.339586      135.000 
1.38649e-05     0.781960      94.4029 
1.36312e-05     0.885454      115.392 
1.35534e-05     0.780666      92.9202 
8.89976e-05     0.297155      70.3754 
0.000289020     0.894329      116.565 
1.33653e-05     0.779652      90.0000 
2.62506e-05     0.940453      88.7656 
7.50015e-05     0.580403      87.9995 
0.000167562      1.22065      108.123 
1.31157e-05     0.779915      88.5114 
5.04289e-05     0.780666      87.0798 
6.13757e-05     0.941076      87.5779 
0.000173139      1.20085      119.994 
0.000454829     0.353651      137.236 
1.21840e-05     0.447333      153.392 
0.000113298     0.781960      85.5971 
0.000411377     0.126477     -108.327 
0.000157623     0.457182      156.801 
0.000184674     0.304558      66.7829 
0.000120656     0.476838      122.990 
0.000265230      1.07195      104.017 
0.000107501     0.961621      86.4209 
8.19413e-05     0.581411      86.0777 
2.16056e-05     0.676788      108.957 
0.000138845    0.0896014      26.3505 
1.07497e-05     0.412220      75.9891 
0.000198965      1.23993      107.832 
0.000237636     0.431906      76.6398 
0.000586097      1.21072      120.793 
0.000136576     0.783776      84.1202 
0.000156261     0.983289      85.3162 
2.80629e-05     0.835602      101.027 
9.15846e-05     0.683639      110.563 
9.61449e-06     0.662354      65.0027 
0.000100090     0.632576      124.708 
0.000381822     0.671167      63.4349 
6.12631e-05     0.101837      78.5245 
0.000505443     0.475177      157.728 
5.10115e-05      1.75453      114.241 
0.000121527      1.77302      113.972 
0.000430188     0.876255      117.158 
0.000125393     0.107434      21.7271 
0.000103480     0.493955      121.710 
6.72577e-05     0.839713      102.384 
0.000298440     0.286050      65.1829 
5.60883e-05     0.562998      83.8791 
0.000340438     0.806114      82.8882 
0.000124279      1.74631      113.635 
2.46883e-05     0.583147      84.0913 
0.000134154      1.03341      104.551 
0.000320216      1.26477      108.435 
0.000156861      1.00348      85.4107 
0.000436893     0.134233     -116.565 
7.30419e-05      2.09821      112.410 
7.97916e-05     0.101837      11.4755 
2.03335e-05      1.76489      113.371 
1.36754e-05     0.672002      112.728 
0.000123523      1.94010      104.332 
0.000122249     0.504899      123.666 
2.51233e-05      1.82804      113.208 
0.000124137     0.690733      112.079 
0.000415133      2.55229      113.550 
2.65620e-05     0.120062      90.0000 
0.000201417      2.10602      112.920 
0.000198722      1.72845      113.894 
0.000152971     0.121759      9.57842 
0.000135180      1.74251      99.2433 
6.97324e-05      1.84599      112.969 
1.09517e-05     0.604406      124.223 
4.83713e-05     0.446997      79.6521 
0.000317091      1.00523      84.3022 
6.78770e-05     0.565518      81.8376 
4.95540e-05      1.70175      113.547 
0.000102176      1.93518      103.751 
5.73211e-05     0.844290      103.727 
1.98250e-05      1.87228      113.277 
9.84386e-06      1.61569      111.811 
9.79807e-05      1.93294      114.446 
0.000201835      2.13230      113.191 
0.000185081      1.57883      112.348 
1.79892e-05      1.25851      107.560 
8.95520e-06     0.616029      125.781 
0.000259256      1.73937      98.5845 
8.62269e-06      1.25276      106.709 
7.82807e-05     0.141777      8.21587 
1.23081e-05      1.24709      105.818 
6.73690e-05     0.680086      114.303 
6.89475e-05     0.532403      124.317 
0.000144928      1.22122      121.610 
1.90881e-05      1.24172      104.918 
0.000167637      1.03869      105.633 
3.07779e-05      1.23684      104.045 
4.85390e-05     0.450910      77.2126 
0.000105134     0.278155      68.9736 
1.73069e-05     0.368782      130.627 
0.000156008      1.95020      103.031 
1.94632e-05     0.161111      7.22432 
3.45030e-05      1.23208      103.131 
7.40117e-05     0.181229      6.41879 
1.89694e-05     0.121759      80.4216 
9.87101e-05      1.94141      114.990 
6.01101e-05     0.644048      64.2410 
3.21763e-05      1.22764      102.210 
3.84366e-05     0.808873      81.4640 
-0.000273556    0.0600310      180.000 
4.79352e-05     0.858942      117.752 
3.65594e-05      1.23852      121.119 
2.58201e-05     0.180093      0.00000 
8.03639e-06     0.372066      126.223 
5.34268e-05      2.56045      113.966 
1.99095e-05      1.22366      101.317 
9.35268e-06      2.14036      113.689 
2.61292e-05     0.355922      141.850 
1.36274e-05     0.688672      115.839 
1.84370e-05      1.72035      113.277 
3.45594e-06     0.585580      82.1191 
1.54171e-05      1.24911      121.914 
8.47459e-06     0.404832      122.895 
-6.01540e-05      2.05787      105.785 
-2.60754e-05     0.560155      55.2029 
3.31644e-06     0.560155      124.797 
-2.42474e-05     0.600426      150.006 
6.37594e-06      1.26571      121.447 
0.000446934      7.58020     -73.2872 
-0.000589894      4.69277      33.3496 
0.000461205      2.21302     -119.808 
0.000199883      9.01634      3.43534 
0.000390487      11.1890     -149.495 
-0.000100183      10.1969      135.397 
0.000463337      5.76904      72.4441 
0.000315002      10.3005      163.185 
-0.000239014      4.79433     -139.399 
-0.000314655      6.20524     -98.3369 
-0.000317068      9.79826      132.188 
0.000229536      8.91736      73.7168 
-0.000250222      10.1682      135.398 
0.000254765      11.1807      117.024 
0.000171010      7.59403     -73.4721 
0.000276866      10.0508     -167.706 
-6.14365e-05      9.56355     -124.088 
0.000222345      9.38018     -89.5096 
0.000110167      7.59061      169.370 
-0.000249008      9.24474     -16.5919 
0.000217524      6.38771     -112.066 
0.000191742      8.99612      3.44308 
0.000164745      7.81456     -149.892 
-0.000111504      9.37677      24.9798 
-0.000162746      8.23254      75.2190 
8.40603e-05      1.82503      9.46620 
-0.000113027      11.9433     -144.472 
-0.000137494      9.44636      154.412 
-0.000161907      8.99746      15.7367 
-0.000184842      7.55853     -154.112 
-0.000109118      9.57971     -124.022 
-8.40908e-05      8.68466     -82.9874 
0.000211470      8.16608      160.543 
-0.000162594      9.78466      132.100 
5.63661e-05      5.12647     -2.90303 
-0.000107598      9.67204      36.8441 
8.21535e-05      8.81483     -84.9257 
8.08050e-05      7.44521     -105.905 
7.95789e-05      9.39275      22.1431 
0.000178278      12.8931     -132.799 
0.000104300      9.23609     -165.965 
-5.23760e-05      4.64032      66.6396 
0.000127901      10.5506     -135.614 
5.26062e-05      10.2673     -44.6861 
0.000103012      10.0760     -19.1191 
-0.000151003      3.70684      169.113 
-0.000191622      9.52535     -48.9160 
0.000101046      5.10528     -2.69587 
-2.65469e-05      8.68221     -83.1201 
-0.000100241      7.42264      145.540 
5.21629e-05      5.46742     -31.5369 
-5.13030e-05      8.58319      21.6014 
9.91455e-05      7.94553      103.685 
7.49891e-05      12.6346     -141.298 
-5.07254e-05      11.9315     -144.551 
9.88274e-05      13.4921      134.520 
-7.47642e-05      8.66284     -83.1046 
5.05877e-05      10.1733      80.7211 
-2.55511e-05      9.68420     -36.9400 
4.97730e-05      8.83426     -84.9369 
4.91177e-05      4.31986      39.3608 
-2.52800e-05      10.8226     -116.091 
9.71898e-05      6.39041     -5.56599 
-4.88439e-05      9.95599     -36.9148 
-4.90363e-05      4.31330     -45.1903 
2.50150e-05      1.13161      133.549 
7.27173e-05      2.61511     -6.14411 
4.90960e-05      10.0528     -127.643 
4.91059e-05      12.6464     -41.9865 
4.91098e-05      6.52391      4.92236 
7.28122e-05      10.2886     -9.05974 
-7.24889e-05      9.42810      154.359 
4.83859e-05      6.22657      54.6742 
2.46701e-05      8.34777     -104.004 
2.46242e-05      10.1293     -92.4881 
4.83080e-05      12.9702     -140.441 
2.46314e-05      10.1031     -133.074 
-4.84116e-05      10.8315     -116.187 
2.44303e-05      2.37215     -5.80978 
2.44221e-05      2.68378     -167.518 
-2.43374e-05      4.86617      13.0655 
2.42732e-05     0.551483     -43.5114 
2.42127e-05      9.62422     -106.665 
-2.42213e-05      10.9398     -140.491 
2.41205e-05      10.1765      80.6127 
-2.40637e-05      4.88566     -9.42326 
-2.38767e-05      7.04517      34.0066 
-2.38767e-05      11.9664      54.3166 
2.37835e-05      2.46453      38.0877 
2.37127e-05      11.1715      116.932 
-2.36502e-05      6.12191      75.2364 
-2.36142e-05      5.47031      7.77331 
2.35416e-05      9.63005     -106.780 
-0.000223507      9.75773      174.944 
-0.000155928      2.93666     -142.193 
0.000225557      14.1304      46.0887 
-0.000209090      9.20325      39.7105 
-0.000157017      7.63393     -161.992 
0.000236431      8.98363     -1.65612 
-0.000194151      6.27279      151.638 
-0.000136898      9.89405     -112.210 
-0.000163706      6.91615      77.8110 
-0.000132143      11.9930      135.406 
-3.94902e-05      3.89009      59.7452 
-0.000153238      9.33602     -34.4386 
5.99774e-05      7.92369     -97.2522 
0.000261394      10.3703     -170.899 
-3.94204e-05      3.88290      59.3363 
5.54194e-05      9.14258     -55.3343 
-0.000184538      7.88502     -28.6431 
3.70096e-05      6.91157     -139.809 
-0.000274230      11.9510      38.1356 
-3.86248e-05      7.18943      163.682 
-5.37557e-05      9.98885     -4.36437 
3.67317e-05      6.01923     -120.997 
5.68106e-05      11.0517      136.981 
0.000142093      8.19875     -76.7460 
1.92331e-05      8.71343     -9.24736 
-0.000249755      9.81838     -74.0390 
0.000226571      12.0866     -48.5564 
-5.47900e-05      8.52434      31.8642 
6.73926e-05      10.8646      144.819 
0.000159643      10.6202     -19.3567 
1.86774e-05      7.94305     -97.2345 
0.000138246      7.33191      72.7037 
-3.65098e-05      8.15828     -101.309 
-3.42249e-05      7.53197      143.312 
-0.000154455      9.27183      137.535 
3.61537e-05      13.8452      45.2920 
-0.000162242      10.2269     -46.1892 
0.000101333      12.3802      139.257 
1.83933e-05      8.98309     -1.53174 
-9.63921e-05      5.73646      142.649 
-6.59868e-05      7.19515      163.527 
8.74430e-05      8.73268     -9.22679 
0.000164697      9.91317      119.359 
0.000185774      5.53227     -28.9708 
0.000211368      9.52176      46.6158 
-5.18034e-05      4.93135      163.995 
0.000150380      5.15911      41.2259 
-8.73715e-05      8.78483     -110.663 
-4.45421e-05      12.8419     -45.6321 
-1.78751e-05      7.07717     -119.827 
3.50639e-05      11.0507      136.833 
0.000351480      12.9049      46.8850 
7.86063e-05      5.38012      37.2918 
6.58891e-05      9.86932      32.7549 
-0.000102903      7.63751     -127.977 
-0.000122200      11.3039     -133.351 
-4.94086e-05      9.67360      134.664 
-0.000120039      3.66279     -44.7759 
-5.01047e-05      8.23149      93.0622 
-9.39463e-05      10.5037      167.129 
3.35673e-05      7.94052     -97.0894 
1.72307e-05      9.95358      111.823 
-3.32687e-05      11.1518      132.819 
-8.95178e-05      8.16227     -101.448 
-7.23065e-05      6.37165     -132.203 
4.82114e-05      5.64588      87.3642 
-0.000165110      12.8502      128.618 
1.68925e-05      9.68989     -10.1021 
7.76878e-05      10.0222     -99.6506 
-4.62238e-05      12.8837     -45.5663 
-4.67068e-05      8.51366      31.7484 
7.74240e-05      11.0359      136.761 
-7.05945e-05      8.88152     -125.839 
-4.60062e-05      4.19122     -166.762 
-3.20434e-05      3.80000      56.8120 
1.64850e-05      5.20157     -88.6774 
-3.20494e-05      8.99183      49.3318 
-0.000105182      8.51530      41.4776 
3.05101e-05      8.85432     -29.0522 
6.06792e-05      13.8454      45.4106 
3.12060e-05      9.92724      111.758 
-0.000107185      10.1546      98.6103 
-5.65536e-05      11.0141      40.1389 
-1.61400e-05      10.1160     -116.922 
1.61056e-05      10.5944     -19.2897 
-4.52013e-05      1.58592     -103.852 
-3.05081e-05      5.23940      163.364 
1.58225e-05      8.17780      128.050 
0.000126597      11.0724     -123.058 
0.000113163      10.0548     -38.2144 
-5.54389e-05      1.92399     -176.422 
-0.000124237      10.1069     -116.820 
1.56521e-05      11.5950      54.3360 
2.97752e-05      8.55936     -43.3908 
-4.51900e-05      10.8581     -116.471 
-5.82237e-05      11.9786      135.338 
7.35725e-05      9.13107     -55.4389 
4.39184e-05      10.0406      6.29007 
4.29397e-05      10.0414     -99.6320 
0.000119304      12.3930      139.189 
-7.16948e-05      8.25172      93.0547 
2.88921e-05      11.0368      136.909 
-3.01173e-05      12.9265     -45.5010 
-0.000110420      7.93461     -134.080 
-1.51383e-05      11.1386      132.745 
-1.51203e-05      9.61003      174.147 
6.48022e-05      9.70644     -9.96770 
-0.000107963     0.962396      43.3255 
-4.11279e-05      11.2160     -33.8049 
2.76992e-05      10.5975      16.8978 
-9.80538e-05      13.6633      134.050 
7.07177e-05      9.09303     -121.419 
0.000205972      8.95092      92.8159 
-1.49468e-05      10.9576      132.338 
-0.000130115      9.11848     -67.4298 
0.000141412      5.47759     -9.66878 
-0.000159367      6.79673     -94.0518 
-4.21230e-05      9.99654     -37.0308 
1.47674e-05      10.3931      74.6001 
7.74204e-05      12.1644      144.637 
-0.000100405      9.00504      49.2340 
5.33249e-05      11.7171     -127.789 
-2.85490e-05      9.79250     -126.613 
6.56523e-05      3.08326      157.098 
-5.26778e-05      9.65937      134.578 
-5.50622e-05      10.9863      132.345 
-5.10473e-05      9.59197      174.014 
-0.000111282      6.11678      75.4199 
-2.74429e-05      10.0091     -4.35555 
-2.75264e-05      9.63746     -37.7506 
1.42528e-05      5.62564      87.3548 
-0.000304859      10.8317     -116.421 
-0.000195515      9.98038     -37.1008 
-7.43119e-05      7.17644      163.483 
3.88733e-05      3.45566      106.125 
4.01368e-05      9.29425      96.1783 
-0.000292397      10.1316     -81.4858 
-2.72564e-05      7.51085      15.4414 
-2.70823e-05      12.1344      135.536 
-2.72627e-05      7.51313      170.961 
-5.13419e-05      6.93522      77.8451 
3.87943e-05      9.88637      32.6913 
0.000147861      9.75608     -53.0852 
2.66439e-05      7.87772      39.0229 
6.27455e-05      11.1917     -51.0198 
-8.01919e-05      1.58136     -103.166 
0.000120812      14.1164      46.1480 
-2.59210e-05      8.98983      137.615 
0.000240373      12.4088     -52.4642 
-1.35503e-05      8.77796     -110.543 
0.000140349      5.62478      87.5533 
-5.43686e-05      5.63408      97.9542 
-0.000151206      9.41294      77.2334 
5.64271e-05      10.9576     -132.338 
-2.58776e-05      9.74348      91.5269 
4.97432e-05      10.7262      117.666 
2.31858e-05      5.18182     -88.4483 
-9.31800e-05      9.18767      39.7912 
-6.09770e-05      7.86724     -28.7138 
3.54131e-05      2.46111     -7.46304 
-2.44427e-05      4.21491     -46.1541 
2.59353e-05      11.0221      136.837 
-1.32095e-05      4.62226      91.7396 
-0.000120303      11.2596     -46.1503 
-1.31280e-05      7.60954     -127.955 
-0.000312653      10.5082      167.022 
-0.000136867      9.97909     -31.8113 
2.51567e-05      11.2949     -148.984 
2.53587e-05      12.9824      44.7494 
8.01822e-05      8.45918     -173.209 
-5.85804e-05      10.1516      98.4973 
-3.58352e-05      9.78043     -126.517 
-1.30061e-05      9.35273     -34.3684 
0.000202684      6.31132     -119.003 
2.53282e-05      5.25264     -42.3772 
7.91753e-05      12.9420     -37.8426 
-3.56009e-05      10.3157     -147.911 
-6.11135e-05      8.77921      156.645 
-9.12933e-05      8.23260      93.2030 
6.90400e-05      10.0600      6.27789 
2.49486e-05      10.8108     -48.5230 
-1.28060e-05      9.25750      171.676 
3.67519e-05      12.5104     -139.408 
-3.59605e-05      5.74691     -146.644 
0.000109618      9.08009     -44.4643 
-1.26412e-05      11.1248      132.668 
-3.51118e-05      8.35953     -136.069 
2.44328e-05      8.54465     -43.4841 
1.26030e-05      9.93477      111.867 
-3.59230e-05      9.72073     -148.633 
-6.06732e-05      10.0002      179.428 
-6.66106e-05      12.1486      135.468 
-1.25525e-05      4.55733      38.2266 
-0.000219592      10.7876      120.655 
0.000152271      10.9606     -21.1786 
0.000117418      8.48842     -133.474 
2.34523e-05      10.8481      144.758 
3.51669e-05      6.56500      108.659 
5.74801e-05      9.10322     -121.524 
1.24782e-05      6.30835     -87.0954 
-3.48527e-05      10.8091     -24.9532 
-9.74763e-05      12.0359     -37.0992 
-1.24101e-05      6.28244      151.476 
1.23779e-05      13.8310      45.3517 
1.23679e-05      2.42426      37.6183 
-4.56666e-05      12.5918      129.329 
7.22575e-05      10.0673     -38.3050 
-5.27947e-05      7.49205      15.4811 
-2.38737e-05      9.35848     -34.1997 
1.22496e-05      2.17842     -7.38206 
-7.97816e-05      6.11856      23.2982 
8.53058e-05      12.1078     -136.072 
2.39858e-05      12.1000     -48.4845 
4.42482e-05      7.89289      38.9337 
0.000135030      7.98664     -38.3925 
-9.48083e-05      13.4706      43.0745 
-2.36489e-05      11.0693      132.511 
3.46287e-05      8.89156     -148.240 
1.20341e-05      10.9928      136.549 
-5.47712e-05      9.95893      93.5683 
-1.19955e-05      8.50069      41.5647 
-7.23905e-05      3.64843     -45.0000 
-0.000170367      13.1341      140.127 
-2.24237e-05      4.57326      38.0696 
2.33481e-05      10.0515     -38.3766 
-5.22683e-05      10.7860      157.430 
-3.43124e-05      10.7779      41.9155 
5.23266e-05      6.56889      166.981 
8.12236e-05      7.32613      72.8494 
1.18220e-05      9.29637      96.2978 
9.37131e-05      10.7974     -48.6036 
1.17345e-05      11.2039     -50.9423 
-1.17104e-05      9.28678      137.620 
-4.13441e-05      12.8561     -45.5675 
-0.000194158      12.3600      52.7593 
2.29501e-05      6.90420     -96.4839 
4.34647e-05      3.45029      105.814 
-1.16125e-05      9.28038      171.575 
4.26137e-05      12.9680      44.8125 
-0.000126567      9.86867      39.8206 
-0.000128096      11.7336     -29.6226 
0.000133138      8.40669      73.9787 
-0.000105783      10.5128     -103.086 
4.27416e-05      5.22402     -42.3628 
3.14876e-05      9.57960      64.1314 
-1.95262e-05      9.79639      132.352 
1.14243e-05      9.89228      32.5352 
3.30685e-05      11.9591     -131.474 
-9.10638e-05      10.8619      23.7812 
7.56936e-05      9.30980     -161.333 
-2.19544e-05      5.63023      55.8588 
1.13674e-05      9.67069     -10.1223 
-0.000119435      10.5053      161.807 
-1.90383e-05      13.6488      134.109 
-3.30015e-05      7.27594     -78.9045 
0.000131897      4.46311     -103.476 
4.10898e-05      10.6265     -51.8798 
-6.72705e-05      10.0977     -116.717 
0.000140472      12.9874     -51.1872 
-4.96898e-05      8.85601     -131.428 
-5.10000e-05      9.72379      91.6495 
2.04387e-05      6.11536     -105.946 
-1.11574e-05      7.89822      20.4528 
1.11588e-05      9.86137      139.688 
2.19194e-05      9.32900     -161.373 
7.61137e-05      12.1146     -48.5457 
-1.11142e-05      8.70379      32.9982 
1.11350e-05      10.9642      136.553 
-3.12544e-05      9.56107      173.515 
4.11528e-05      12.5108     -42.7954 
-1.10521e-05      11.0561      132.436 
-1.10502e-05      8.18617     -101.559 
9.23433e-05      12.2948     -50.7438 
2.07116e-05      2.79350      119.126 
-8.10574e-05      9.78325      132.267 
-1.09093e-05      8.60704      31.9927 
-5.79423e-05      11.6533      134.723 
-3.79697e-05      11.5667     -33.0035 
4.96175e-05      8.22407     -143.605 
-3.02116e-05      8.98885      16.0157 
-7.82764e-05      7.90532      20.5904 
3.68690e-05      12.4951     -139.347 
0.000209695      10.3105     -77.3373 
2.02911e-05      4.04775     -126.360 
2.11757e-05      11.2334      34.1147 
-2.09192e-05      9.26512     -147.341 
4.87549e-05      5.05109      133.236 
1.07151e-05      11.2084     -152.474 
-4.60439e-05      10.0106     -4.46689 
-0.000148904      10.7914      41.9955 
4.97065e-05      10.9495      136.480 
-0.000100134      12.6210      49.2409 
-2.07748e-05      11.0144      132.349 
2.93939e-05      9.46395     -14.0649 
-6.57372e-05      11.3214      129.624 
-5.00835e-05      9.73804     -148.695 
8.90559e-05      9.52224     -9.18694 
0.000151727      10.1059      105.028 
0.000133814      11.9866     -131.483 
6.26194e-05      8.87434     -148.171 
-1.04459e-05      4.19407      156.976 
-2.06273e-05      12.1253      39.9136 
3.00533e-05      9.53517      46.5306 
-0.000110195      7.50228      178.624 
-1.03051e-05      7.91019      92.8982 
-1.03110e-05      8.97488      137.528 
2.02623e-05      5.17380      41.0835 
-9.28858e-05      12.4658      51.3833 
5.72058e-05      11.1911     -152.428 
-1.02565e-05      2.44640     -124.338 
3.94208e-05      10.0593      136.693 
-3.86191e-05      9.00297      49.0522 
0.000186022      12.3655      139.198 
-1.02048e-05      1.85924      18.8371 
-0.000240197      8.94277     -71.8874 
0.000142273      11.2495      34.0589 
2.71801e-05      9.93083      119.302 
2.96336e-05      12.7007     -128.928 
-4.82549e-05      13.3418     -130.136 
1.01237e-05      8.23248     -43.8182 
-1.01131e-05      6.26530      151.391 
-2.89927e-05      12.5947      129.199 
0.000279820      12.9260     -37.8977 
-1.00177e-05      1.94482     -175.862 
-2.76214e-05      7.27206     -79.0611 
-1.00010e-05      11.3464     -133.430 
0.000154380      10.0801      6.26530 
9.98976e-06      9.88992      139.675 
-0.000124284      9.28552      137.443 
9.93445e-06      9.01624     -74.2970 
-7.42164e-05      12.1273      39.7811 
0.000144612      8.46151     -173.078 
-4.66342e-05      12.1129      138.415 
9.95270e-06      12.3782      139.130 
1.93343e-05      9.75139      156.167 
-4.59789e-05      5.72035      102.724 
-9.40365e-05      8.23376      93.3438 
-1.91205e-05      9.68051     -90.5907 
2.85137e-05      9.94040      119.400 
1.89881e-05      9.09722     -121.697 
1.92101e-05      9.78385     -53.0589 
-5.44317e-05      12.1650      126.171 
4.44126e-05      11.1882     -50.8769 
-0.000163761      12.5119     -132.669 
9.73404e-06      2.18112     -7.90987 
2.82859e-05      10.0022     -99.6701 
-1.62433e-05      8.58133      174.385 
4.49208e-05      10.2429      149.879 
3.58895e-05      7.88017      38.8191 
-1.86039e-05      9.95774      93.4562 
1.87751e-05      14.2833     -44.8872 
-7.75734e-05      9.24807     -147.273 
0.000129956      9.02154     -74.1777 
-9.61949e-06      11.7430      50.1822 
9.61914e-06      8.21846     -43.7163 
4.32190e-05      7.28556      58.9280 
-5.07149e-05      12.3203      133.882 
-3.64280e-05      11.0425      132.359 
6.66833e-05      12.4490      145.340 
1.79430e-05      10.6930      45.9098 
2.74048e-05      5.44961      77.4909 
0.000124712      13.2876     -39.9945 
-0.000368233      13.1496      140.184 
-3.65118e-05      8.62053     -89.2020 
2.73975e-05      3.44483      105.489 
-1.76375e-05      7.92943      92.7446 
-2.55822e-05      9.50634      66.8329 
-5.41608e-05      9.54094      173.502 
9.38525e-06      8.97545     -3.32145 
-9.37427e-06      7.92105     -133.979 
-0.000126444      8.50860      103.318 
3.46336e-05      4.46787     -103.728 
-9.29726e-06      10.0881     -11.0859 
5.11885e-05      10.0460      136.774 
-3.31085e-05      7.15702      163.437 
1.80280e-05      9.75929      156.062 
3.24729e-05      5.16050      40.9140 
9.23462e-06      9.96601      41.0159 
9.04174e-05      11.0588     -132.140 
-5.95741e-05      11.1405      143.543 
4.31101e-05      12.7130     -128.996 
0.000130568      9.40487     -53.9091 
-2.53847e-05      11.3178     -133.426 
0.000181354      12.0136     -139.390 
-9.15774e-06      8.99446      16.1397 
4.91978e-05      12.6047     -41.9137 
2.57279e-05      12.5520      36.5774 
-6.38042e-05      7.94803     -126.612 
6.46651e-05      10.7840     -48.6843 
-4.93134e-05      1.59666     -102.292 
9.07235e-06      9.49988     -93.7409 
0.000140790      12.1360     -136.067 
-3.45515e-05      10.8230     -116.329 
-9.06166e-06      11.0722     -156.583 
5.73604e-05      7.76934      149.871 
-7.09090e-05      8.60075      174.397 
0.000148087      12.7281      45.5088 
4.06763e-05      7.19597      37.0957 
1.76858e-05      11.5484      35.3403 
-6.51560e-05      9.53781      42.9596 
1.76236e-05      8.23312     -43.6188 
-1.77020e-05      12.3063      133.814 
4.77749e-05      12.9542      44.8733 
0.000100061      9.46890     -14.1838 
-8.91187e-06      1.86563      19.4042 
-2.61649e-05      10.3481      40.0583 
0.000106034      10.9353      136.410 
2.51755e-05      11.0788     -122.916 
5.68502e-05      8.89181     -139.288 
3.36949e-05      9.98223     -99.6896 
2.40880e-05      5.23769     -42.5266 
-4.09719e-05      12.5819      129.128 
-6.85296e-05      9.75471     -148.754 
1.72636e-05      2.93043      20.7879 
-8.85977e-06      4.22897     -45.9562 
9.66975e-05      11.0222     -121.872 
4.96808e-05      5.62395      87.7595 
-2.53060e-05      9.55031     -95.8898 
-5.71382e-05      9.72440      91.7688 
7.98263e-05      9.49863     -93.6235 
-0.000107045      11.0536     -156.541 
-7.69829e-05      14.2697     -134.717 
4.82755e-05      9.10788     -121.806 
6.25338e-05      10.5517      155.474 
0.000107403      14.2691     -44.8296 
8.72393e-06      8.20777     -143.521 
-4.00699e-05      9.01577      48.9585 
2.44221e-05      10.1817      1.12752 
9.74990e-05      12.4960     -42.8586 
-3.32357e-05      11.5858      152.107 
3.23873e-05      3.42065      105.250 
3.24719e-05      11.1316      144.654 
-3.28887e-05      9.76798     -64.0117 
4.06794e-05      11.1637     -152.472 
-1.66192e-05      8.61779      32.1069 
1.68662e-05      10.3039     -169.149 
-5.49847e-05      9.26851     -79.0558 
-3.30785e-05      14.2553     -134.774 
-0.000139547      8.62084     -89.0673 
-7.17701e-05      12.1429      39.7199 
4.78809e-05      8.21984     -143.407 
8.53092e-06      6.10982     -105.764 
-0.000150380      11.7461      50.3186 
8.50470e-06      9.00389     -1.65240 
6.11997e-05      11.5643      35.2844 
3.20488e-05      10.2029      150.269 
8.45498e-06      6.27661     -4.20274 
-3.12255e-05      7.90648     -134.081 
2.40777e-05      8.98488     -110.050 
-0.000103021      10.5175      161.945 
3.23214e-05      9.86190      159.214 
-2.42137e-05      6.89172     -40.7657 
4.67391e-05      12.2645     -33.5588 
5.99256e-05      8.68345     -76.4105 
-9.05297e-05      12.1486      126.227 
-7.62198e-05      10.3457      40.2163 
3.97456e-05      14.1029      46.2051 
-1.63291e-05      12.1000      138.484 
2.40351e-05      9.77781      156.110 
8.29438e-06      3.15365     -169.401 
-2.42025e-05      9.82397     -73.9254 
-8.28872e-06      11.8271     -147.010 
3.09311e-05      9.98399      36.3652 
-3.84654e-05      9.93946      93.5753 
-2.41375e-05      10.8787      54.3530 
8.27655e-06      12.3940     -129.960 
9.41573e-05      10.9535     -21.0834 
3.93125e-05      11.0828     -112.492 
-4.66465e-05      9.81137      132.272 
1.58821e-05      5.07973      133.246 
6.16682e-05      10.6011     -19.3930 
-2.37171e-05      8.05307      28.1554 
1.60218e-05      10.4869      132.759 
3.76835e-05      5.96925      55.5148 
3.10940e-05      3.17357     -169.469 
6.80481e-05      13.8031      135.469 
3.02563e-05      10.4905     -167.449 
5.97094e-05      9.83710      28.8075 
-5.64372e-05      11.0288      132.281 
-3.73125e-05      10.4630     -47.7119 
1.56702e-05      12.8028     -133.544 
5.04394e-05      8.47450     -133.375 
-3.71093e-05      11.6993      125.537 
-2.23830e-05      10.8522      23.9207 
1.58535e-05      11.2551      121.855 
2.29551e-05      9.56991     -85.4442 
-7.74309e-05      11.3339      129.700 
-7.99493e-06      9.88586      172.446 
5.15988e-05      10.3005     -120.447 
-0.000106143      12.8376      128.547 
-3.12547e-05      8.50395      103.185 
7.97002e-06      6.15555     -103.723 
-7.97361e-06      9.74977     -63.9595 
-3.03693e-05      11.8101     -146.956 
7.23857e-05      5.64048      89.1844 
0.000109630      9.95960     -99.5936 
-1.54719e-05      13.4150      131.676 
-7.87896e-06      9.70100     -90.7091 
7.22438e-05      10.3671     -171.009 
1.55055e-05      10.1009     0.681047 
7.87545e-06      12.9741     -133.315 
1.55301e-05      9.88115     -167.848 
-4.55163e-05      13.4564      43.1313 
1.55827e-05      3.86766      77.7570 
2.98462e-05      9.12103      86.1035 
0.000392168      14.2706     -45.8522 
4.48554e-05      9.68997     -92.6010 
-4.45763e-05      11.6670      134.792 
-4.87053e-05      9.54826     -95.7688 
7.82488e-06      9.00990     -110.124 
-0.000115818      9.42549      100.760 
2.89470e-05      9.29061     -161.293 
-2.25033e-05      12.0520     -37.0411 
7.75158e-06      5.42983      77.4446 
7.74675e-06      12.9227      40.5421 
7.74397e-06      10.2776      17.9058 
6.32623e-05      11.2379      121.909 
-9.45443e-05      11.5763      152.196 
2.85509e-05      5.14777     -3.11682 
7.71776e-06      10.0282      73.1895 
1.51661e-05      12.5358      36.6326 
1.47029e-05      11.1339     -30.4346 
-1.38676e-05      8.53387      81.5101 
2.79393e-05      12.1219     -136.003 
-7.69631e-06      10.0004      179.312 
1.39021e-05      7.69074      129.195 
-4.31682e-05      9.40848      77.3537 
-0.000248072      14.4674      135.055 
-1.51839e-05      10.9399      53.0240 
-7.65478e-06      7.45615      143.071 
6.42751e-05      12.8812      39.0773 
2.99455e-05      10.4137      38.7636 
-5.64181e-05      11.5590     -152.151 
-7.55391e-05      11.6443      28.6329 
-7.60554e-06      9.03648     -23.6147 
7.74174e-05      9.12670     -12.7874 
0.000104658      12.1350      128.175 
8.15422e-05      10.6636     -62.2809 
1.46532e-05      6.10455     -105.587 
7.16497e-05      12.9375      40.4859 
-2.17902e-05      12.1146      138.546 
7.57281e-06      10.3003     -169.256 
7.54591e-06      7.54799      16.9469 
5.02404e-05      9.79699     -108.696 
-1.48590e-05      12.6088      53.8380 
-0.000106385      9.74090     -64.0666 
-3.27856e-05      11.1363      143.397 
7.51795e-06      3.57968     -39.5564 
1.45350e-05      12.4225     -129.972 
-7.50190e-06      4.47955     -41.0198 
-2.88505e-05      10.0890     -116.618 
-1.46877e-05      9.80522     -73.8938 
-0.000206869      14.1290     -135.745 
-2.85845e-05      8.23492      93.4793 
5.63867e-05      14.0888      46.1502 
3.43101e-05      7.67505      129.291 
2.84121e-05      11.1464     -152.426 
-0.000100779      9.41013      100.903 
-4.87861e-05      9.72502      91.8837 
4.93188e-05      12.2820     -50.8170 
-6.85356e-05      11.1526      143.459 
7.43338e-06      6.91202      57.0431 
-9.47147e-05      12.5251     -132.735 
-7.26518e-05      9.76486      18.5087 
2.15902e-05      9.86911      159.104 
2.71807e-05      8.71183     -76.1864 
1.44990e-05      13.5336      134.820 
1.44854e-05      9.73930      148.010 
-4.11102e-05      5.38851     -18.1675 
-5.59710e-05      10.7813      119.321 
-1.46149e-05      12.1461      39.5880 
-0.000126982      12.4817      51.4413 
1.44078e-05      9.00321     -110.007 
5.36025e-05      9.90096     -167.872 
-2.14742e-05      9.41399      101.024 
4.86541e-05      9.69324     -144.996 
-3.53810e-05      13.1013      133.269 
-2.14444e-05      8.70624     -23.5624 
0.000119003      12.3611      132.180 
-2.13187e-05      7.45643     -10.9763 
7.29151e-06      10.0708      80.7426 
3.44290e-05      10.0568     -160.843 
8.48174e-05      10.6733      40.1377 
2.12738e-05      10.9072     -49.3859 
-7.28634e-06      8.63496      32.0355 
-1.44294e-05      9.90080      7.31084 
-7.27163e-06      7.94052     -82.9106 
-3.38592e-05      8.76061      156.593 
2.83658e-05      11.9457     -131.402 
7.24230e-06      10.2605      149.936 
7.30534e-05      6.90102      57.1843 
-7.23711e-06      11.6875      125.456 
6.10679e-05     0.963658     -131.622 
4.14955e-05      10.8141     -26.9438 
0.000162050      11.0753     -112.398 
-4.65576e-05      10.9517      52.9424 
-1.43335e-05      13.9050      43.7755 
7.19726e-06      3.87185      77.4748 
1.42561e-05      5.16838     -3.32934 
4.07720e-05      10.3979      38.8335 
-0.000174946      13.4702      43.1942 
-8.75555e-05      12.1611      39.5294 
-3.42813e-05      8.52809      171.774 
-1.39630e-05      13.3379     -131.170 
2.06875e-05      10.2503      150.034 
7.14772e-06      12.7257     -129.067 
8.00287e-05      11.0733     -132.072 
0.000104155      13.8173      45.4092 
4.00191e-05      11.3123     -149.037 
7.13523e-06      5.62322      87.9581 
1.40255e-05      10.1015     0.906611 
5.36491e-05      11.8306      131.506 
2.08817e-05      8.20418     -143.326 
0.000200419      9.68911     -92.4857 
-0.000122453      10.7976      120.745 
7.10553e-06      7.21214      36.9987 
2.70079e-05      12.9398      44.9366 
-7.08704e-06      6.60378      173.390 
-5.99816e-05      10.0633      59.1549 
-8.35099e-05      12.0398     -36.9642 
-1.38519e-05      12.5848      129.003 
1.39672e-05      11.3500      30.4967 
-7.04554e-06      9.37993      6.49053 
7.04540e-06      7.76269      149.670 
-2.77063e-05      14.2691     -134.830 
2.06169e-05      10.0339      73.0828 
-7.03605e-06      5.63692      98.1581 
6.04963e-05      9.49737     -93.5015 
7.01985e-06      3.57707     -40.0133 
5.35955e-05      13.5479      134.881 
2.04055e-05      11.8078      47.7457 
-6.78494e-05      13.9191      43.7200 
1.99978e-05      12.0974      136.810 
7.00748e-06      8.58069     -4.01172 
-1.38962e-05      9.29923      137.351 
-7.01763e-06      11.0013      132.274 
3.85704e-05      12.6198     -41.8522 
1.38924e-05      9.12243      85.9765 
-7.00242e-06      11.3599     -133.501 
4.68157e-05      13.8175      135.528 
-2.02788e-05      11.9848      142.594 
-6.96554e-06      4.66509      92.7013 
-6.98598e-06      7.23546      47.7995 
5.22737e-05      8.46397     -172.942 
3.37963e-05      10.2811     -169.235 
-7.21859e-05      9.54899      7.82255 
-1.36257e-05      1.44681     -84.4343 
-6.95070e-06      9.88071      7.32579 
7.87944e-05      9.79168      69.3067 
-4.63979e-05      13.3526      48.8850 
-0.000103180      8.71406     -23.6799 
-1.37232e-05      10.5756      110.593 
-6.91939e-06      7.47252      15.5226 
9.68630e-05      5.28924      144.382 
5.21806e-05      8.40112      74.1115 
3.34932e-05      10.5702      155.520 
-2.68734e-05      11.6813      134.862 
3.37935e-05      11.2815     -30.7017 
1.37258e-05      10.1006     -99.5750 
-2.01625e-05      10.0204      179.429 
5.23981e-05      11.5808      35.2265 
7.12397e-05      13.4846     -138.246 
-2.60506e-05      9.81065     -73.7843 
-2.65436e-05      7.24858      47.6852 
3.99914e-05      10.3678     -60.9120 
-1.31097e-05      10.0411     -165.466 
6.30284e-05      9.56832     -85.5651 
-2.66720e-05      11.9756      51.7147 
6.83674e-06      5.07331     -31.6236 
2.02046e-05      10.4311      152.355 
0.000109906      10.9606      21.1786 
2.01922e-05      10.0812     0.908433 
-6.81335e-06      8.59305     -37.9097 
-3.92043e-05      7.95968     -126.725 
-3.20432e-05      10.7763      42.0676 
5.93115e-05      11.9323     -131.329 
0.000230654      13.6067     -138.812 
0.000160414      12.9529      40.4278 
6.81729e-06      10.1003      6.25276 
-2.67641e-05      9.52387      173.367 
7.09002e-05      9.79051     -108.584 
6.78975e-06      10.2590      17.9393 
1.34940e-05      9.07690     -109.436 
1.33918e-05      7.77953      149.742 
-2.67030e-05      11.3245      138.793 
5.16019e-05      9.14861      85.4838 
1.33178e-05      8.66421     -56.6774 
-6.43315e-05      13.2738      132.925 
-0.000109804      14.2834     -134.772 
-8.39638e-05      8.25398      93.3356 
6.75740e-06      10.2393     -171.236 
-0.000166198      10.1286     -81.5992 
-1.33516e-05      4.21874      72.3353 
-2.61062e-05      11.1332      145.909 
6.75505e-06      6.13660     -103.766 
-7.63244e-05      7.29196     -79.0913 
-6.73572e-06      13.1027      133.146 
0.000171496      10.1025      6.36698 
-1.33164e-05      10.0206      179.313 
0.000127610      10.3726      142.599 
-6.71084e-06      9.88165      39.9109 
-2.62272e-05      9.93826      93.4630 
1.99472e-05      10.2169     -171.332 
0.000140251      12.8970      39.0206 
-5.14597e-05      2.82301     -69.2479 
1.33119e-05      3.85280      77.4119 
-3.90912e-05      12.6005      128.945 
6.70866e-06      4.78125      55.9134 
5.74687e-05      10.1110      105.135 
6.95830e-05      12.1113      136.740 
6.68996e-06      9.59423      101.545 
-1.96712e-05      11.6828      125.595 
1.32417e-05      11.9049      57.1363 
6.67535e-06      10.4672     -12.4700 
6.67655e-06      11.1513     -30.3819 
-6.99114e-05      13.1160      133.208 
2.61146e-05      5.05607     -31.7440 
-1.29432e-05      10.0799     -116.515 
-4.50610e-05      9.07968     -90.0000 
-1.31470e-05      2.12136      177.831 
6.62551e-06      10.6270     -19.4598 
-0.000107647      13.3678      48.9421 
-1.96389e-05      9.17269      39.8692 
-2.60021e-05      10.8135     -116.469 
3.86447e-05      7.02141     -63.4322 
-6.61049e-06      1.21309     -76.6600 
0.000138859      10.2362     -171.348 
0.000113823      10.9346     -21.1216 
3.83265e-05      9.08341     -109.552 
1.30900e-05      9.05833      158.363 
1.31098e-05      7.27512      59.0646 
5.11294e-05      5.62093      88.7761 
-3.21256e-05      12.1814     -46.6624 
6.59086e-06      3.64211     -88.1109 
6.59142e-06      8.45990      34.4033 
3.20281e-05      9.09656     -82.5443 
7.02006e-05      11.2641     -30.7543 
-4.47220e-05      8.42587      27.1104 
-5.81344e-05      13.9337      43.6624 
-1.29892e-05      9.46531     -117.703 
6.55250e-06      8.74107     -75.9649 
-1.30000e-05      11.6956      134.792 
-6.94391e-05      10.7913      119.415 
-2.56387e-05      7.52178      178.628 
1.29542e-05      6.09379     -105.220 
-5.06499e-05      8.51329      103.451 
-6.54403e-06      1.20858     -77.5947 
1.29816e-05      10.4405      152.256 
1.91692e-05      7.50396      1.83376 
1.93137e-05      9.59815      101.660 
-8.21240e-05      9.50375      173.353 
-8.18488e-05      11.3398      138.861 
6.51151e-06      13.2727     -40.0486 
2.54862e-05      9.97894     -65.4894 
3.16705e-05      10.1684      21.8210 
-4.43359e-05      5.93808     -138.689 
-4.42906e-05      12.1770     -45.5992 
1.29141e-05      10.0816      1.02356 
-1.28666e-05      8.57562     -41.1223 
1.28941e-05      10.0398      72.9722 
-5.66648e-05      10.2925     -174.200 
-1.90599e-05      10.4938     -103.110 
1.88813e-05      10.2907     -120.353 
5.02102e-05      14.0747      46.2097 
4.39958e-05      9.97396      127.993 
-2.53709e-05      4.22470      72.0832 
3.12391e-05      9.84652      28.9070 
-8.77948e-05      12.8254      128.479 
-6.46659e-06      8.16694      85.3623 
-4.40996e-05      6.84896     -22.6711 
6.46528e-06      5.22278     -42.6768 
6.88996e-05      10.2774     -169.346 
-1.89980e-05      10.4990      161.912 
-3.77425e-05      1.22764     -77.7903 
6.44355e-06      7.78687      149.946 
6.90456e-05      12.1224      128.099 
4.39750e-05      11.2486      121.997 
4.99992e-05      13.8601      135.583 
-3.74355e-05      10.6182      68.2174 
5.65070e-05      12.3522      139.269 
-2.51322e-05      9.38445      77.4429 
2.53965e-05      10.1119     -78.2465 
-6.27585e-05      8.16532      85.5040 
6.41495e-06      11.9329      57.1074 
6.41936e-06      9.08464      158.292 
-1.89862e-05      9.23104     -147.205 
1.89197e-05      7.85299      153.369 
-3.15199e-05      11.9915      51.7747 
-6.40207e-06      5.39463     -18.3644 
-0.000187377      13.1646      140.238 
3.16383e-05      9.49615     -93.3795 
-3.75496e-05      8.50804      171.755 
-1.89556e-05      8.94886     -71.7686 
5.63221e-05      13.5766      134.881 
6.40621e-06      10.8052     -27.0882 
3.15723e-05      10.3773     -60.8178 
5.62907e-05      13.2475     -139.408 
6.39189e-06      12.2412      53.9724 
-2.53228e-05      9.76069      98.2478 
-6.39096e-06      10.1403     -126.420 
2.53413e-05      9.84115     -3.72922 
5.02795e-05      10.2906      110.479 
-8.77596e-05      14.1151     -135.689 
-3.13859e-05      12.5686      138.548 
8.11927e-05      14.2552     -44.8848 
1.87923e-05      12.9255      45.0000 
2.49855e-05      10.5833      66.9726 
-3.11940e-05      13.3507     -131.233 
-1.89748e-05      11.7099      134.862 
1.26094e-05      13.2597     -39.9816 
-1.26479e-05      2.14161      177.851 
-9.34890e-05      12.1767      39.4688 
-2.73160e-05      9.23308      130.696 
-6.35859e-06      14.2833     -134.887 
-3.75032e-05      8.62118     -88.9377 
3.13340e-05      10.4226      152.204 
-6.35862e-06      10.0430     -112.478 
6.35830e-06      11.9194     -131.258 
-3.13143e-05      9.09980     -31.2441 
4.36325e-05      5.02882     -31.6646 
6.83317e-05      10.5827     -19.4281 
1.26514e-05      12.2297      48.6467 
6.34078e-06      8.78468     -75.3643 
6.34641e-06      12.4811     -42.9218 
3.74603e-05      13.5672     -49.0031 
-5.64885e-05      13.9484      43.6049 
6.32772e-06      10.1039     -99.6841 
1.26082e-05      10.0613      1.02562 
6.33372e-06      3.64283     -87.7924 
-3.73450e-05      10.3163      168.253 
1.87334e-05      7.80442      150.021 
6.33167e-06      12.2697     -50.8876 
2.49900e-05      10.9207      136.336 
-3.10624e-05      8.98490     -21.1385 
2.48498e-05      11.8440      131.579 
-1.25848e-05      11.2658     -58.0577 
-4.37730e-05      14.2977     -134.830 
6.30241e-06      10.0458      72.8617 
-1.25228e-05      9.91924      93.5826 
1.25515e-05      9.33542     -107.969 
5.59619e-05      4.93666      46.1455 
-3.72625e-05      12.4690      51.5141 
-2.49325e-05      11.7571     -43.2776 
4.35157e-05      11.8908     -131.249 
1.25029e-05      8.67536     -56.5656 
3.10925e-05      9.06582      158.244 
6.29441e-06      9.42125     -53.9817 
1.86741e-05      12.2293      54.0491 
2.48855e-05      9.58243      101.803 
1.24957e-05      9.67726     -144.930 
-1.25034e-05      12.6163      128.887 
-2.48673e-05      9.54635      7.70655 
-1.86313e-05      9.15971      39.7719 
-1.24607e-05      10.8407     -116.517 
-3.16851e-05      9.21988      130.600 
-6.26711e-06      10.8569     -24.4872 
6.25734e-06      12.5097     -42.9266 
-2.48329e-05      10.0807      59.2140 
-1.86356e-05      9.64573     -161.000 
1.86600e-05      12.2426      48.5782 
-6.26127e-06      10.0409      179.315 
4.34112e-05      9.83986     -3.61149 
6.26270e-06      13.8320      135.587 
-6.25540e-06      9.44738     -117.760 
3.10125e-05      10.1317     -78.2698 
-6.24540e-06      13.5056     -134.701 
2.47936e-05      10.1273     -99.7778 
-1.24180e-05      13.3024      132.929 
-3.71690e-05      9.49435     -58.7862 
-4.95520e-05      11.6956      134.932 
6.23722e-06      10.6079     -19.4962 
1.86456e-05      10.0494      71.6733 
6.22831e-06      11.7236     -149.101 
1.23986e-05      11.2382      33.9734 
6.21689e-06      7.26821      58.8455 
6.20601e-06      10.0329      72.7224 
1.24031e-05      11.4876     -148.745 
6.21572e-06      12.3747      132.250 
-3.70787e-05      11.2933     -58.0281 
2.47418e-05      11.2919     -30.7901 
6.21222e-06      11.3233     -26.6567 
-6.80289e-05      13.8830      42.8403 
-1.85818e-05      9.07971     -89.8722 
1.23852e-05      9.09911     -82.4225 
6.20750e-06      13.7481     -137.770 
-1.23906e-05      9.34202      71.1372 
-3.08826e-05      14.3545     -135.508 
-4.32770e-05      9.75780      98.1301 
-6.20779e-06      8.74271      156.542 
-1.85916e-05      13.9625      43.5497 
-2.47270e-05      12.1628     -45.6674 
-3.70826e-05      10.2008      16.5180 
-1.23828e-05      10.8384     -24.5316 
3.08913e-05      11.3518     -64.4276 
-2.47050e-05      14.3687     -135.451 
6.20265e-06      5.16725     -3.10506 
-1.85731e-05      13.2876      132.988 
5.55919e-05      9.93963     -99.6131 
6.21809e-06      7.01237     -63.5803 
4.32518e-05      13.7631     -137.826 
2.47359e-05      12.3933     -52.4092 
3.70617e-05      10.9535      21.0834 
6.18244e-06      12.3285      36.4235 
2.47273e-05      11.7068     -149.052 
-1.23477e-05      12.6036      128.815 
1.85521e-05      10.3872     -60.7203 
-1.23721e-05      12.3327      52.7766 
3.08732e-05      10.3089      110.441 
6.21990e-06      10.0418      1.02762 
3.08634e-05      9.00588     -80.4121 
-6.18974e-06      4.23098      71.8221 
6.20882e-06      9.96119     -65.4428 
3.08622e-05      11.4771     -148.831 
6.20202e-06      9.32919     -107.851 
-6.19392e-06      13.9633      43.4322 
-1.23401e-05      8.41700      26.9922 
-6.16748e-06      11.1190     -34.8913 
-6.17566e-06      9.45648     -117.864 
1.85066e-05      12.2274      48.5154 
-1.23691e-05      9.51872      99.7994 
2.46716e-05      10.0562      71.9247 
1.23427e-05      10.3827      38.9010 
6.17426e-06      10.1278     -78.3779 
1.84955e-05      14.2409     -44.9424 
1.23336e-05      6.56402     -124.949 
-2.46783e-05      13.9772      43.4925 
6.18490e-06      13.4998     -138.303 
-3.70810e-05      6.40477     -9.34534 
6.17608e-06      10.3237      32.9797 
6.15560e-06      11.9159      57.0545 
-6.17293e-06      8.56037     -41.2114 
-1.23298e-05      10.0411      165.935 
-6.17094e-06      10.4797      161.878 
6.15785e-06      11.3290     -149.088 
6.17511e-06      9.51638     -93.3723 
2.46815e-05      10.1469     -78.4001 
6.16587e-06      12.4949     -124.963 
1.23246e-05      10.0219      1.14551 
-1.85055e-05      8.16376      85.6457 
1.23328e-05      7.00479      148.309 
3.76858e-05      7.03954     -63.5060 
-6.16052e-06      12.0283      142.635 
6.17421e-06      7.79757     -151.005 
-6.17029e-06      9.18422      61.0895 
-6.16013e-06      13.5628     -45.5380 
-6.17581e-06      10.9477      50.9311 
-1.23369e-05      10.3541     -163.733 
1.84921e-05      10.1499     -99.8718 
-6.17726e-06      7.56502     -141.011 
-6.17239e-06      14.1577     -135.743 
-6.14549e-06      9.67451      20.1961 
1.23194e-05      13.4717     -138.308 
6.16000e-06      12.0827      136.744 
-6.17183e-06      12.0194      51.7564 
-1.84930e-05      14.0356      43.2669 
-6.16025e-06      12.2824     -127.990 
-6.16492e-06      12.5878      128.873 
6.15944e-06      10.3401      32.9208 
-6.16056e-06      9.98592     -80.8944 
-6.17452e-06      8.51785      103.578 
6.16170e-06      12.6977      132.509 
-6.15805e-06      9.81633     -73.6708 
-6.16456e-06      9.37633      127.283 
-6.16188e-06      9.48437      173.339 
-6.15511e-06      10.8497     -116.613 
-6.15777e-06      11.7719     -43.2100 
6.17233e-06      12.9127      38.9640 
6.16474e-06      12.2409      48.4443 
-1.22272e-05      7.58078     -141.107 
6.15836e-06      11.3058     -26.7011 
6.14775e-06      11.0387     -121.819 
1.23425e-05      8.90115      90.7728 
6.31223e-05      11.1149      24.6722 
-7.78971e-06      9.96712     -92.1832 
7.36876e-05      13.7455     -132.465 
-0.000118926      9.96791     -92.2996 
2.18758e-05      10.2024      1.23483 
-1.44102e-05      11.6544     -38.0283 
5.37296e-05      8.71293      165.103 
5.99968e-05      10.6882     -54.6742 
-5.96469e-05      12.8296      46.1991 
-4.05465e-05      11.2830     -58.1122 
7.21329e-05      10.8095      19.0047 
4.65359e-05      12.0286      39.0600 
5.94568e-05      10.1180      93.4014 
-6.47114e-05      12.1275     -138.477 
4.65977e-05      13.3032     -39.9384 
-4.51872e-05      11.6698     -37.9693 
-6.57388e-05      8.53090      81.6447 
-5.26363e-05      12.4668     -47.0171 
3.87342e-05      13.4768     -41.3318 
-1.98999e-05      9.77204     -148.816 
6.94473e-06      10.3040     -155.822 
-7.01538e-05      10.3611      40.1440 
-1.97297e-05      5.02893     -83.8326 
-1.34112e-05      2.86317      92.8092 
-1.33571e-05      7.43139      8.98105 
5.75074e-05      10.2226      1.23238 
-7.08370e-05      11.3878     -133.649 
-1.93590e-05      11.1913     -131.668 
1.95267e-05      10.8919      136.192 
6.97774e-05      10.2855     -155.776 
-5.10423e-05      6.29214      151.314 
5.07357e-05      11.3412      49.0027 
1.31911e-05      11.0866      24.8548 
1.91159e-05      12.4271      129.711 
-3.77243e-05      12.5012     -47.6590 
6.59994e-06      10.0771      78.0876 
2.53753e-05      12.6668     -51.9896 
-3.83131e-05      7.97838      16.7545 
6.51028e-06      9.00535     -74.5451 
2.49889e-05      6.31383     -19.8132 
-1.25566e-05      11.6496     -59.9123 
-2.50242e-05      11.8821     -123.397 
-1.25287e-05      9.09994     -90.0000 
1.24473e-05      12.0416     -139.377 
-1.24045e-05      8.28794     -32.8858 
6.31231e-06      9.86426      28.8501 
-6.31428e-06      9.85118      40.0593 
-3.71041e-05      9.50746      104.125 
1.23084e-05      13.1346     -39.1920 
6.27184e-06      10.5991     -152.952 
-6.24461e-06      13.4981      131.818 
-2.46992e-05      8.76915      142.321 
-1.22657e-05      4.42868     -58.1088 
2.51084e-05      12.7317      141.185 
1.23443e-05      9.01077     -74.4210 
6.22523e-06      3.44744      101.374 
6.22395e-06      10.9328      25.3462 
1.22990e-05      8.22325     -178.327 
6.16545e-06      9.90523     -167.758 
6.12900e-06      8.93869     -93.7206 
-1.83613e-05      8.50134      57.8783 
-6.10998e-06      8.88116     -6.72511 
1.21277e-05      10.5647     -165.753 
-2.50487e-05      5.03107     -83.6117 
-1.89922e-05      7.43458      9.13527 
2.49389e-05      10.9060      136.263 
-2.49931e-05      13.9198      136.398 
-1.86216e-05      9.24788      130.617 
1.24573e-05      11.1050      24.8108 
-1.87157e-05      8.31596     -32.9272 
-1.24155e-05      11.6594     -59.8293 
1.23793e-05      3.06949     -151.593 
1.85698e-05      7.49544      26.9755 
6.23503e-06      6.99417      148.450 
-6.19899e-06      13.4836      131.873 
1.22345e-05      8.80428     -75.3976 
1.23237e-05      8.04134     -164.271 
-1.83370e-05      8.06076      27.9630 
-6.12790e-06      10.5178     -37.8943 
1.21725e-05      13.7336      42.2851 
6.12828e-06      9.70849     -2.36106 
1.22570e-05      11.3599     -56.5619 
1.22120e-05      8.41989      74.1479 
-1.21462e-05      11.9364     -58.7082 
1.23598e-05      7.01080      148.534 
6.15277e-06      6.89006      57.3259 
6.11878e-06      3.45150      101.703 
6.08707e-06      9.96196      127.905 
6.07419e-06      12.0268     -139.317 
-6.06049e-06      7.76269      30.3302 
-6.01894e-06      10.5053     -37.8071 
5.99648e-06      13.0193     -140.735 
! Tentative model.
! Flux (Jy) Radius (mas)  Theta (deg)  Major FWHM (mas)  Axial ratio   Phi (deg) T \
! Freq (Hz)     SpecIndex
6.47654e-06      11.1050      24.8112 
