! Center RA: 12 21 31.69052,  Dec: +28 13 58.50011 (2000.0)
! Established model.
! Flux (Jy) Radius (mas)  Theta (deg)  Major FWHM (mas)  Axial ratio   Phi (deg) T \
! Freq (Hz)     SpecIndex
 0.0714129    0.0720098     -33.5245 
 0.0163411    0.0562440     -45.0000 
 0.0323971    0.0848966     -45.0000 
 0.0154481    0.0446338     -26.9958 
0.00732390    0.0202604      0.00000 
 0.0108280     0.240977      94.8229 
0.00177341     0.260423      94.4620 
0.000970608     0.243395      99.4042 
0.000356089     0.223431      100.253 
0.000227213     0.280627      94.1402 
0.000224415     0.319665      90.0000 
0.000223384    0.0397705      0.00000 
0.00101055     0.204262      101.227 
0.000648275     0.339925      90.0000 
0.000806818     0.360186      90.0000 
0.000689012     0.184432      102.453 
0.000807174    0.0720098     -56.4755 
0.00138761     0.596781      103.599 
0.00106953     0.379696      90.0000 
0.000959211    0.0896014     -63.6495 
0.000738953     0.141777      98.2159 
0.000189097     0.164706      103.973 
0.00179349     0.621223      104.909 
0.000905473     0.107434     -68.2729 
0.00226078     0.360755      86.7805 
0.00272698     0.121759      99.5784 
0.00150466     0.121759     -80.4216 
0.00276707     0.645453      106.202 
0.00101384    0.0633577      71.3505 
0.00180247     0.380236      86.9456 
0.00367339    0.0998015      90.0000 
0.00296408     0.141777     -81.7841 
0.00193864      1.11429      111.035 
0.00428650      1.12172      112.001 
0.00318701     0.670704      107.381 
0.00120219     0.362375      83.6991 
0.00323003     0.161111     -82.7757 
0.00206917     0.381773      84.0205 
0.000396873    0.0562440      45.0000 
0.000744608     0.145849      105.824 
0.000500728    0.0600310      0.00000 
0.00122979      1.12917      112.919 
9.94647e-05     0.189835      108.435 
0.00111719     0.695981      108.415 
0.000248558     0.365154      80.5377 
0.000372249     0.170734      110.586 
0.000863942     0.384412      81.0157 
0.000271967     0.164706     -76.0271 
8.98736e-05    0.0828082     -14.1622 
0.000104361     0.869143      113.023 
0.000204952     0.824622      112.808 
0.000199976     0.798447      112.081 
9.85992e-05     0.966811      114.437 
0.000385659     0.401929      95.6787 
9.74054e-05     0.772836      111.233 
0.000372993     0.993009      115.035 
9.50897e-05     0.746703      110.347 
0.000361199     0.721011      109.453 
0.000784814     0.380236      93.0544 
0.000351264    0.0828082      75.8378 
0.000347707      1.01966      115.547 
0.000503995      1.13322      110.667 
0.000410203      2.46746      109.895 
0.000404418     0.664933      105.714 
8.28458e-05     0.400469      92.8999 
8.27271e-05      1.00142      116.047 
0.000390755      1.02856      116.565 
0.000543870     0.181229     -83.5812 
0.000450835    0.0633577      18.6495 
0.000456951      1.15150      110.324 
0.000459636      2.47443      110.336 
0.000155946     0.399956      90.0000 
0.000443172     0.640096      104.460 
7.38084e-05      1.01048      117.079 
7.34331e-05      2.49980      110.616 
0.000753406     0.184432     -77.5470 
0.000285231      2.48155      110.775 
0.000548739      1.03778      117.566 
0.000280897      1.15869      111.264 
0.000327125     0.612198      101.310 
0.000205388      2.50673      111.034 
0.000309358     0.635505      102.756 
0.000263295    0.0828082      14.1622 
6.79987e-05     0.400469      87.1001 
0.00106702      1.17760      110.906 
0.000133183      2.48853      111.195 
0.000320155      2.51408      111.465 
0.000466964    0.0802914      0.00000 
0.000707723      1.04695      118.512 
0.000997494     0.204262     -78.7726 
0.000362101      2.52156      111.893 
0.00131033     0.608549      99.4391 
0.000318012     0.247514      104.036 
0.000448195      2.52890      112.303 
0.000313288     0.388092      78.0600 
0.000598461      1.05677      119.477 
0.000652195      2.53666      112.727 
0.000250617     0.126477     -18.3275 
0.000104651     0.369026      77.4333 
5.10826e-05      1.18470      111.788 
0.000554690      1.20353      111.430 
0.000449419     0.141777     -8.21587 
4.91382e-05     0.583147      95.9087 
0.000184480     0.392593      75.2732 
0.000233817     0.373757      74.5128 
0.000229420     0.223431     -79.7468 
9.20693e-05     0.253192      108.489 
0.000828909      2.54455      113.148 
0.000550152      1.08441      119.883 
0.000211257     0.605655      97.6181 
8.66623e-05     0.278155      111.026 
0.00139013     0.227911     -74.7283 
0.000247263     0.379669      71.5651 
0.000327291     0.727741      110.902 
4.16983e-05     0.286050      114.817 
0.000496089      1.21108      112.322 
0.000236938     0.398226      72.4528 
0.000120536      2.52663      113.321 
0.000119086     0.295127      118.390 
0.000431187     0.145849     -15.8239 
0.000153529     0.581411      93.9223 
0.000151355      2.49067      124.207 
0.000166007      1.09426      120.768 
3.78649e-05     0.304887      121.617 
0.000174574      2.55229      113.550 
0.000348976     0.386554      68.7149 
7.34801e-05     0.344213      125.596 
7.13879e-05     0.404795      69.7174 
0.000213264      1.11107      120.254 
0.000204530     0.559789      90.0000 
0.000954834      2.46315      124.073 
0.000139061     0.355922      128.150 
0.000838749     0.247514     -75.9638 
0.000136176      1.21892      113.203 
0.000295763      2.52321      107.998 
0.00119000     0.761740      113.206 
0.000255979      1.12141      121.148 
0.000129248     0.368782      130.627 
0.000124730      2.56045      113.966 
0.000517986      1.23688      112.847 
0.000448880     0.394056      66.0707 
0.000429240     0.164706     -13.9729 
0.000231306     0.580403      92.0005 
0.000177943     0.381773      132.849 
9.00763e-05      1.13880      120.621 
5.87378e-05     0.735213      112.377 
0.000192297      2.56875      114.379 
0.000375784      1.14925      121.490 
2.79063e-05     0.395830      135.000 
0.000207562      4.23796      123.839 
0.000280305     0.424483      135.000 
0.000258652     0.375627      64.8172 
0.000125673     0.560155      87.9272 
0.000436535      4.24928      124.066 
0.000202336      2.57686      114.774 
9.57928e-05      1.24458      113.675 
0.000153993      2.54877      108.291 
0.000468979     0.384685      62.0853 
0.000310812      1.17674      121.785 
0.000470342     0.580049      90.0000 
9.10865e-05      2.44640      124.338 
0.000276548     0.438496      136.803 
0.000110678      1.26317      113.306 
2.22588e-05      2.97004      102.446 
0.000312886     0.184432     -12.4530 
0.000320416      2.98909      102.365 
0.000165897      2.42295      131.321 
0.000434699      2.43503      123.945 
8.23822e-05      1.27132      114.144 
0.000224991      1.20401      122.115 
0.000907557      4.23251      124.220 
9.55616e-05      1.27974      114.972 
0.000156267      2.58542      115.182 
0.000129955      2.40834      131.628 
0.000211834     0.453478      138.555 
0.000149788      2.55521      108.722 
7.19334e-05      1.28810      115.759 
0.000307757     0.394577      59.4847 
8.79433e-05      3.01326      102.659 
0.000497682      2.39542      131.279 
5.09435e-05      1.29703      116.565 
1.71684e-05      3.00889      102.282 
0.000110969      1.21490      122.924 
0.000249980     0.204262     -11.2274 
0.000338666      3.03303      102.575 
6.46075e-05      1.32424      116.957 
1.62497e-05     0.424884      138.795 
0.000310296     0.440329      140.532 
0.000172743      1.24253      123.172 
3.09974e-05      1.33320      117.704 
4.43840e-05      1.19830      104.506 
2.99391e-05      1.34274      118.470 
0.000163957      2.59410      115.587 
5.72978e-05      1.35251      119.224 
1.44517e-05     0.412159      60.9150 
5.96339e-05     0.421988      58.5994 
0.000137475      2.56153      109.136 
3.86370e-05      2.92612      102.229 
4.09498e-05      1.36215      119.941 
0.000198683     0.404832      57.1052 
0.000119160      1.19339      103.564 
0.000243662      2.40733      123.829 
2.64082e-05      1.37237      120.674 
2.58986e-05      1.27058      123.437 
1.29322e-05      1.38919      120.263 
6.24548e-05      1.39951      120.980 
0.000191513      3.05208      102.495 
0.000126122     0.223431     -10.2532 
4.79633e-05      1.28186      124.192 
6.99630e-05      1.40965      121.659 
6.21383e-05     0.580403      87.9995 
7.15929e-05     0.234065      69.9384 
2.23197e-05      1.18753      122.616 
0.000151058     0.456152      142.150 
5.07674e-05      2.90706      102.311 
3.32637e-05      1.42039      122.355 
3.23637e-05      1.43092      123.015 
4.03704e-05      1.18880      102.615 
0.000156333      2.38210      130.913 
4.17059e-05      1.15956      122.312 
0.000106331     0.753987      111.791 
4.14072e-05      1.44795      122.578 
1.04757e-05      1.37659      125.527 
5.87510e-05     0.432889      56.3099 
4.83260e-05     0.416183      54.7625 
8.65043e-05     0.220795     -5.26495 
2.01145e-05      1.40425      125.737 
4.83487e-05      2.61239      115.395 
5.85908e-05      1.45896      123.249 
7.55488e-05      3.07186      102.413 
2.89116e-05      1.13203      122.026 
9.55327e-06      1.43209      125.897 
2.75363e-05      1.44407      126.548 
2.75975e-05      1.47017      123.909 
8.97988e-06      1.06689      120.425 
8.93817e-06      1.48640      123.490 
0.000807418      9.50589      12.5146 
0.000289626      1.90353      9.07243 
-0.000876483      9.94556     -136.550 
0.000510210      1.92049      8.38022 
-0.000438723      5.47363      134.261 
-0.000274339      7.95910     -139.589 
-0.000394663      9.90569      178.033 
-0.000433277      6.70024    -0.173254 
0.000137440      8.20430     -56.2329 
0.000753036      5.18782      107.041 
-0.000329305      3.04305      2.64298 
-0.000484215      12.1015      37.8164 
0.000519233      8.37398      11.0139 
-0.000342936      5.29228      122.969 
-0.000368767      7.30311     -125.300 
-0.000244294      11.4601     -48.3232 
-0.000523645      6.70021      0.00000 
0.000402085      8.17620     -56.2720 
0.000566276      13.4407     -43.3124 
0.000559259      9.19976      68.8477 
-0.000408050      6.47053     -161.059 
0.000303944      8.71658     -99.3739 
-0.000179216      8.31754     -23.9751 
-0.000181322      7.97396     -139.679 
-0.000548010      6.21054      46.4344 
0.000171202      10.0031     -49.6215 
0.000351265      11.1825      152.288 
6.18795e-05      2.39707      125.148 
-0.000233619      5.50176      134.260 
6.12530e-05      4.73180     -25.8052 
0.000269843      4.22136      91.3547 
-0.000330406      3.78161      1.81939 
0.000225227      9.49053      12.6605 
0.000231979      2.38546      124.750 
-0.000323553      2.39974      90.0000 
-0.000436091      9.79865      81.0744 
-0.000117484      9.76007     -62.2804 
0.000215693      4.74066     -26.0256 
-0.000213570      3.06243      2.24684 
-0.000264904      8.10988     -66.9128 
0.000317927      9.23926      139.826 
-0.000468451      5.35259     -9.46496 
-0.000317029      1.35252     -51.6232 
0.000272444      1.42121     -166.162 
-0.000114005      5.35583     -9.67084 
0.000265727      6.30037    -0.361677 
5.71122e-05      8.19278     -104.274 
0.000262169      1.00480     -137.421 
-0.000111505      9.90641      177.916 
-5.67681e-05      8.20434     -178.187 
0.000158663      8.13425     -160.766 
0.000210191      9.71704      103.205 
-0.000361059      8.32952     -71.0868 
0.000256638      5.95392     -135.138 
-0.000338726      9.75101     -62.3819 
-0.000357226      7.29142     -125.170 
5.51694e-05      8.24757     -117.435 
0.000253351      8.19780     -104.411 
-0.000257344      8.18476     -178.040 
-0.000256907      7.66506     -76.7283 
0.000107984      10.3418      110.609 
0.000256431      2.84727     -175.965 
0.000205348      2.40214      124.474 
-0.000150970      7.52913     -84.9684 
0.000199572      5.13474     -101.003 
0.000252025      11.1653      152.241 
0.000102565      8.71991     -99.5053 
0.000151380      6.58017      179.824 
-5.28110e-05      5.28129      122.785 
-0.000199382      3.87992     -150.004 
-0.000101853      9.34378     -23.3285 
-0.000149512      9.88691      177.912 
-0.000199453      12.0855      37.8753 
0.000101343      1.98050     -136.643 
0.000149899      10.3347      110.503 
5.16750e-05      8.03996      47.4170 
0.000148730      8.35601      41.8950 
-9.93468e-05      10.6506     -123.124 
5.05772e-05      4.71357     -25.9124 
0.000194364      8.02627      47.5234 
0.000222604      9.47149      12.6864 
-9.62778e-05      11.0810     -35.1516 
9.66485e-05      1.44089     -166.355 
-4.86129e-05      9.12156     -8.57272 
-4.82787e-05      6.43861     -160.777 
-9.50439e-05      9.80169      80.9617 
-7.19781e-05      6.81090      155.541 
4.75314e-05      1.99528     -137.042 
4.68962e-05      9.10804      20.7030 
-0.000225570      10.6542      51.1726 
-0.000518550      10.6700      51.2408 
-0.000204016      4.46035      179.740 
0.000247854      8.02950      47.9280 
0.000347656      3.35438     -16.2781 
0.00242555      13.9536      47.0921 
-0.000371765      9.98031     -147.107 
-4.76847e-05      5.19337      49.6825 
4.63680e-05      9.90305      139.585 
-4.56339e-05      5.20602      49.5187 
-0.000421168      10.1179     -42.9955 
-8.88173e-05      4.09473      169.024 
0.000125861      12.1982      142.059 
0.000167121      9.91848      139.661 
-4.44065e-05      4.47986      179.741 
-0.000152530      5.19119      49.3789 
0.000417940      6.88128     -85.4968 
8.43806e-05      7.56717      102.054 
8.30548e-05      8.01594      48.0355 
0.000249693      9.69085     -112.701 
0.000225713      5.86032      37.6549 
-4.22331e-05      9.98257      178.738 
-0.000189658      3.45888      13.7167 
-0.000158250      4.11851      168.801 
-0.000155806      9.98573     -147.265 
4.11565e-05      6.37759      115.844 
-0.000209120      9.98304      178.622 
-0.000425852      7.30183     -139.109 
-3.98694e-05      4.52038      179.743 
-0.000114773      10.1317     -43.0793 
0.000245850      6.38612      116.002 
-0.000285910      10.3951      23.9524 
0.000106569      7.53898      101.785 
0.000180391      10.2349      144.384 
-0.000369457      8.24907     -125.925 
-0.000174078      10.8992      41.2037 
-0.000341965      9.07495      173.672 
-7.40237e-05      8.38969     -168.448 
-3.73493e-05      4.72010      179.517 
3.67644e-05      5.85732      37.9284 
-0.000419067      8.37058     -168.421 
0.000165583      4.68458      132.754 
-7.04787e-05      4.07558      168.971 
-0.000221056      10.2337      29.1211 
-3.56027e-05      12.1041     -36.7356 
-6.98710e-05      4.75987      179.521 
-0.000180015      6.26741      139.141 
3.54559e-05      12.1915      47.8589 
6.75652e-05      3.34876     -15.9454 
-0.000120879      13.2719     -46.8328 
-0.000163534      11.3817      42.4376 
-3.45168e-05      3.04990     -116.067 
-3.40729e-05      12.1318     -36.7572 
0.000124640      12.1779      47.9296 
-0.000126371      12.1738      37.7938 
6.43886e-05      10.2417      117.064 
-6.44366e-05      4.09864      168.746 
-3.31866e-05      3.04106     -116.559 
-0.000239361      12.0328      132.440 
9.51321e-05      5.75684     -68.6022 
-6.49495e-05      4.78013      179.523 
-8.17974e-05      9.96712      177.817 
3.26467e-05      9.93336      139.734 
5.09616e-05      6.65980      179.658 
-6.16981e-05      10.4867     -162.119 
-0.000200826      5.45651     -85.5832 
-0.000217271      7.15631     -45.2252 
5.76028e-05      10.3228      110.648 
-3.19070e-05      10.1046     -42.9145 
-0.000152325      10.4030      24.0506 
-6.10365e-05      9.98352      178.510 
3.15456e-05      7.74684     -87.6351 
6.13451e-05      9.41294      12.7666 
0.000120895      6.64021      179.825 
-8.88428e-05      9.98737      177.821 
-6.05775e-05      10.0914     -42.6706 
-0.000110614      12.9491     -49.3216 
0.000373241      8.04122      47.6209 
-8.96916e-05      9.09508      173.686 
-0.000114476      4.78001      179.757 
8.80171e-05      4.45562      117.830 
3.04129e-05      6.39503      116.165 
8.66483e-05      3.36824     -15.8507 
0.000198069      9.63814     -84.8811 
-0.000165291      9.29631     -148.191 
5.82257e-05      10.2507      144.447 
-0.000281242      12.1481     -36.7000 
-0.000159616      4.90757      7.96284 
5.79644e-05      7.74606     -87.7793 
-2.98487e-05      12.9898     -49.2447 
0.000282040      9.39769      12.9144 
-0.000108632      10.9762     -50.9156 
0.000179043      5.73059     -68.7169 
-5.58261e-05      10.0638     -42.6642 
-5.67314e-05      11.3673      42.5039 
-2.90325e-05      7.97495     -50.8005 
2.89469e-05      7.50296     -164.221 
2.88679e-05      6.45773      116.881 
-5.68442e-05      9.11522      173.700 
0.000176023      6.88284     -85.3349 
-0.000162206      10.4215      24.0052 
2.86489e-05      10.5005      17.4017 
0.000108590      8.97694     -38.7563 
0.000154555      6.61995      179.825 
5.54135e-05      4.67085      132.572 
-8.10880e-05      10.1308     -43.2412 
-5.48389e-05      4.56654      71.8866 
0.000176331      4.24086      91.3485 
-4.70606e-05      10.0267     -40.7148 
-2.78414e-05      5.62864      135.000 
4.91890e-05      6.51240      117.430 
2.77264e-05      11.4858     -39.2041 
-5.34731e-05      14.1001     -134.597 
5.33027e-05      7.04543      57.1647 
-2.75420e-05      9.64041      89.6432 
-0.000134513      9.09288      173.813 
-0.000126789      8.75890     -169.076 
2.72377e-05      7.48347     -164.179 
7.81663e-05      12.0413     -126.013 
9.11383e-05      10.1409     -118.638 
-5.31761e-05      11.0067      41.6864 
0.000174917      11.4573     -39.1896 
-0.000287289      8.93248      142.643 
-5.32667e-05      9.96640      177.929 
2.69533e-05      4.44619      117.599 
0.000170716      6.52176      117.588 
-5.20067e-05      12.1578      37.8523 
0.000102571      7.74521      30.4059 
-0.000168921      9.64030      89.7636 
-0.000235425      9.11302      173.827 
-0.000324473      11.8380     -120.118 
-0.000187661      10.6852      51.3063 
5.19652e-05      9.63635     -85.0011 
2.65558e-05      12.0532     -126.091 
2.64070e-05      7.76555     -87.7848 
2.63716e-05      3.38702     -15.7606 
-2.62128e-05      4.69667      62.3459 
-7.25706e-05      9.85272     -68.0689 
0.000189698      12.1799      48.0616 
-0.000143319      12.0465      132.511 
2.61370e-05      9.70176     -112.545 
0.000214518      6.24960     -77.4339 
-0.000251592      7.23349     -123.954 
-0.00132941      11.8278     -120.033 
2.60392e-05      6.28633     -99.5230 
-0.000202707      7.28859     -139.229 
-7.33267e-05      4.72605     -61.1601 
-0.000342227      10.2514      29.0660 
-4.96525e-05      10.0501     -42.5793 
0.000165665      12.1000     -138.484 
7.28987e-05      3.38157     -15.4302 
4.98056e-05      9.16489      178.123 
6.84771e-05      8.05489      47.5145 
-0.000209749      10.4476      24.0632 
2.50726e-05      8.52802      10.6791 
9.61526e-05      9.65486     -85.1269 
-0.000108311      9.13242      173.840 
-0.000215911      11.0202      41.7651 
-7.26796e-05      7.19818     -45.1098 
-0.000113842      11.6668     -47.7789 
4.83925e-05      10.0438     -84.6285 
2.47805e-05      6.78826     -149.356 
0.000156461      8.99216     -38.6785 
-2.48411e-05      10.1161     -43.3198 
-2.46788e-05      6.62974     -68.7790 
4.77892e-05      9.97397      138.416 
0.000256434      12.0249     -126.070 
2.45966e-05      8.72941      92.6260 
7.08671e-05      9.13856     -155.569 
6.81393e-05      9.69430     -112.438 
0.000110864      10.1325     -118.790 
6.82607e-05      7.03447      57.3033 
0.000110269      10.0225     -84.7333 
6.85035e-05      11.0366     -125.190 
-4.74367e-05      9.15256      173.853 
-4.72819e-05      12.1453      37.7769 
-4.57609e-05      4.55366      71.5651 
-2.38266e-05      13.0281     -51.1067 
-8.77990e-05      5.47596     -85.5989 
8.30029e-05      9.18580      178.006 
-2.38505e-05      4.92424      7.70657 
4.61655e-05      8.50812      10.7044 
8.85757e-05      7.72774      30.4819 
-0.000187467      7.24483     -124.087 
6.82308e-05      6.59965      180.000 
8.88980e-05      8.74985      92.7527 
-8.80083e-05      8.23720     -125.811 
-6.57142e-05      6.21169      133.042 
-6.63863e-05      6.82898      101.144 
-4.46675e-05      3.57732     -153.435 
-4.59845e-05      10.1295     -43.4001 
-4.61326e-05      9.39134      174.010 
0.000129341      6.79861     -149.209 
-2.32295e-05      6.37717     -160.198 
2.30944e-05      6.90303     -85.3486 
-0.000474096      13.0154     -51.1761 
-4.35108e-05      9.96331     -147.044 
4.41173e-05      6.28301     -99.3408 
8.53455e-05      10.3051      164.695 
-8.68186e-05      4.69956     -61.2537 
-8.62756e-05      9.94688      177.812 
-0.000103969      12.1764     -36.7195 
-6.62102e-05      4.94432      7.67509 
0.000104778      12.8024      48.0410 
4.40742e-05      7.93811     -57.0295 
-6.60768e-05      12.1299      37.8333 
-4.45131e-05      9.41149      174.023 
-0.000297188      11.0056      41.8327 
2.24100e-05      7.47495     -163.843 
2.23325e-05      9.34265     -91.3485 
-8.39700e-05      10.6979      51.2216 
-2.22463e-05      7.95926     -50.7083 
0.000161836      4.22094      91.0900 
-0.000342306      9.43089      174.035 
6.24221e-05      10.2863      164.666 
4.38836e-05      2.02164     -92.2762 
4.37602e-05      9.65316     -85.2467 
4.22855e-05      3.40110     -15.3394 
4.12094e-05      6.27380     -77.2935 
4.23453e-05      9.14696     -155.453 
8.23541e-05      9.95882      138.338 
9.67928e-05      12.6788     -128.080 
-4.23718e-05      6.34644     -159.911 
0.000181701      12.1809      48.1938 
7.81180e-05      9.16555      178.001 
-0.000239294      6.25109      45.7782 
-8.35840e-05      7.23903     -124.304 
-2.15464e-05      9.69048     -102.518 
0.000253983      12.0978     -138.352 
-2.14772e-05      8.74288     -168.921 
-6.36370e-05      11.2121     -28.2099 
-0.000123388      10.4744      24.1192 
4.23685e-05      8.48821      10.7298 
-7.97100e-05      10.7343      155.918 
2.13333e-05      9.68037     -83.5956 
-2.12864e-05      7.18390     -45.2243 
-2.11602e-05      10.0364     -42.4941 
-2.11267e-05      12.7824     -37.9470 
-2.09959e-05      11.8991     -35.5604 
-3.96914e-05      11.1590      113.669 
-2.09712e-05      2.00244      39.7396 
-0.000139248      10.3387     -8.67882 
4.13286e-05      4.65768      132.395 
0.000133083      10.2621      144.359 
8.09773e-05      5.78413     -45.1419 
-0.000192819      11.0600     -157.796 
-7.93647e-05      9.68611     -102.401 
0.000100526      9.41744      12.8868 
4.11928e-05      9.65150     -85.3666 
2.06553e-05      6.91650      176.018 
9.87262e-05      9.39779     -173.646 
7.88929e-05      11.7663     -135.276 
-2.06309e-05      11.2293     -28.1628 
0.000156203      2.35770      124.641 
-5.90871e-05      9.62030      89.5218 
-2.03564e-05      10.1153     -43.4760 
-7.86879e-05      12.1139      37.8921 
2.03778e-05      9.10996      46.2449 
3.98078e-05      9.68658     -112.327 
3.97548e-05      5.69776     -80.5017 
4.00420e-05      10.8292     -138.894 
-0.000373666      11.2389     -28.2539 
-0.000132659      8.72300     -168.895 
2.01938e-05      6.35165      115.357 
-7.86614e-05      5.81807      98.1040 
2.00419e-05      9.62975     -85.4725 
-0.000354494      11.0377     -148.786 
-7.61249e-05      11.9109     -35.6396 
-1.99559e-05      6.32742     -159.848 
-7.80026e-05      7.05389     -109.721 
-0.000166109      12.0597      132.579 
1.98291e-05      7.99376     -56.9484 
-3.90172e-05      4.96440      7.64386 
1.97286e-05      8.45281      10.9099 
-0.000152482      10.4559      24.1646 
0.000111253      7.94741      149.112 
7.52441e-05      9.62817     -85.5927 
-1.95656e-05      12.7540     -37.9312 
1.95372e-05      8.36092     -28.8953 
7.56117e-05      6.80862     -149.068 
-3.80417e-05      4.68180     -61.1345 
-5.77942e-05      11.4626     -118.219 
-3.83861e-05      6.17031      132.896 
-0.000180916      9.45104      174.048 
1.94519e-05      3.41557     -14.9338 
0.000113620      10.5763      37.2382 
1.94560e-05      9.41793     -173.660 
-5.63616e-05      9.92738      177.808 
0.000131480      14.0601     -136.153 
-5.49129e-05      6.52035     -63.9864 
3.75580e-05      12.1944      48.1229 
0.000148659      9.43646      12.8604 
1.91345e-05      7.70065      30.4256 
1.90705e-05      6.54809      117.660 
0.000146596      10.8444     -138.964 
-1.89774e-05      7.64534     -76.6935 
1.89635e-05      8.43291      10.9360 
1.88914e-05      6.25985    -0.364018 
1.89659e-05      10.0243     -84.6180 
3.74528e-05      10.3002     -77.0977 
3.74715e-05      1.85499      11.1963 
-0.000109670      12.1859      41.4076 
-5.62174e-05      8.25336     -71.3460 
-5.56455e-05      11.2338     -155.715 
1.87938e-05      9.64837     -85.6020 
1.88364e-05      9.00902      92.5445 
0.000437449      11.8616      59.4994 
-3.67599e-05      7.04708     -109.566 
-1.87310e-05      10.3342      9.24277 
0.000597462      10.0483      170.839 
0.000812951      14.0455     -136.095 
3.69629e-05      11.8900     -130.359 
-1.86740e-05      10.4544     -161.945 
1.87225e-05      9.77273      20.7352 
5.50496e-05      6.28028    -0.547679 
1.86076e-05      6.73013      114.582 
1.86359e-05      11.4493     -33.7463 
-0.000342371      10.3574      9.33539 
-3.66132e-05      5.84090      98.2654 
-0.000108810      8.23487     -71.3025 
7.29418e-05      9.40006     -173.523 
-5.52763e-05      10.7195     -155.058 
-3.70020e-05      7.30394     -139.333 
1.86010e-05      9.75448      20.7758 
3.64240e-05      6.91512      176.186 
-0.000128015      10.4381      24.2084 
1.84379e-05      4.64404      132.210 
5.47309e-05      9.68265     -83.4764 
-3.66892e-05      6.69339     -109.735 
-0.000180250      6.25206      46.0358 
-1.84705e-05      10.3356     -8.56779 
3.66773e-05      12.0369     -126.148 
1.83886e-05      6.03043      80.0688 
-0.000126887      8.21568     -71.2572 
-0.000162700      11.2567     -28.2050 
0.000144199      9.76557      20.6241 
1.83876e-05      9.36247     -91.2262 
-1.83940e-05      9.98337     -40.7755 
0.000251420      10.5602      37.3047 
1.82937e-05      9.17206     -155.112 
9.03711e-05      9.81436     -32.6852 
-1.82834e-05      10.6726      51.3912 
9.03189e-05      10.3919     -137.651 
-0.000179530      8.68777     -168.718 
-5.41670e-05      11.2658     -148.058 
1.81796e-05      7.69079      30.3003 
1.81250e-05      9.00995      92.6732 
-1.81819e-05      9.92818      177.691 
-0.000107747      10.7018     -155.014 
-8.96732e-05      11.5664      55.5656 
1.81074e-05      12.0767     -126.243 
3.59498e-05      10.2957     -77.2076 
-1.80768e-05      4.98374      7.61403 
-1.80740e-05      9.74164     -62.4875 
3.57693e-05      2.34624      124.234 
0.000376362      11.8716      59.4182 
7.16350e-05      14.0455     -135.981 
-1.79638e-05      7.29124     -139.449 
-1.80322e-05      9.89127      7.78709 
-3.58089e-05      12.1643     -36.6430 
-0.000196402      10.4196      24.2541 
8.92500e-05      11.1678     -130.280 
3.58728e-05      4.67266      132.227 
-7.14783e-05      10.3327     -8.46081 
-5.35645e-05      9.94767      177.696 
-0.000160588      13.0032     -51.2431 
-8.96437e-05      11.2255     -155.810 
1.79236e-05      12.1286     -126.415 
-1.78972e-05      5.37819      12.0233 
8.91572e-05      9.83079     -32.6238 
-0.000196735      14.0482      43.4417 
5.35527e-05      12.8126     -44.7461 
-3.56847e-05      9.96804     -40.8516 
1.78651e-05      6.72203      114.431 
3.56940e-05      9.21514     -154.825 
1.78814e-05      1.96581     -136.237 
-1.78413e-05      11.2830     -148.112 
-3.55810e-05      9.88854      7.67078 
-3.56605e-05      14.1003     -134.485 
-1.78420e-05      10.7796      69.2437 
7.12009e-05      12.6808     -140.183 
-3.56615e-05      6.68658     -109.572 
-1.78268e-05      2.90422     -163.194 
-7.11718e-05      13.9817     -132.914 
7.11769e-05      5.66536     -155.608 
3.55657e-05      12.1406     -126.492 
7.13138e-05      10.0483     -170.839 
-1.77880e-05      9.90862      7.65514 
-0.000142699      10.7865      69.1468 
-0.000161193      8.24139     -71.1691 
3.55879e-05      10.2611      47.2908 
0.000214512      10.0452      170.949 
3.56537e-05      6.04367      80.4734 
-1.77514e-05      14.0861     -134.426 
1.76773e-05      9.02944      92.6674 
3.56502e-05      9.38215     -173.391 
1.77843e-05      9.22378     -154.711 
0.000288126      13.2137     -139.851 
1.77527e-05      6.81906     -148.922 
-8.95412e-05      2.88483     -163.078 
-3.55667e-05      11.2056     -31.0532 
1.78481e-05      12.5696      36.0681 
5.32939e-05      12.1522     -126.566 
-3.57190e-05      9.62015      89.6425 
3.55948e-05      10.8597     -139.035 
-7.11117e-05      12.5335     -136.422 
-0.000106849      13.9949     -132.973 
-1.77346e-05      9.90594      7.53900 
1.77859e-05      10.0452     -170.949 
-0.000197336      10.3298     -8.34966 
7.18069e-05      10.4063     -137.724 
-3.56700e-05      9.90340      7.42710 
-8.92785e-05      8.65277     -168.535 
0.000107789      12.5532      36.1226 
1.77830e-05      12.1129     -138.415 
8.94391e-05      10.0283     -170.820 
-3.55604e-05      10.2540     -93.0203 
-0.000107053      11.1889     -31.1048 
-5.38776e-05      11.0312     -148.647 
-9.00178e-05      13.2709     -131.883 
3.56412e-05      9.77770      20.4752 
-5.36377e-05      12.1360     -36.6233 
0.000143589      13.3041      42.6845 
1.77702e-05      12.8269     -44.8104 
0.000143782      12.6937     -140.113 
-1.77640e-05      6.67982     -109.408 
1.78593e-05      9.65371     -83.9362 
-1.78091e-05      2.89864     -163.564 
-5.38679e-05      13.0850     -133.576 
-0.000108067      12.9874     -51.1872 
1.78099e-05      13.0833      130.287 
0.000144281      10.0252     -170.930 
-3.58145e-05      9.90080      7.31084 
3.57533e-05      12.1643     -126.643 
7.20005e-05      10.1698     -30.7528 
-5.37418e-05      9.96875      177.584 
-5.37075e-05      10.4011      24.2999 
-8.96061e-05      14.0088     -133.033 
-0.000180610      10.3606      9.44186 
3.60991e-05      10.2600      47.1310 
5.42024e-05      11.1547     -130.200 
5.39710e-05      13.0707      130.222 
-9.02616e-05      10.2530     -92.9072 
-0.000162534      9.89825      7.19452 
-9.01932e-05      12.5475     -136.355 
-9.05526e-05      8.63292     -168.508 
1.80095e-05      9.61353     -85.2271 
1.80452e-05      9.31403      57.0948 
-1.79336e-05      12.1713      41.4684 
5.42566e-05      9.77063      20.3639 
-3.61404e-05      11.2157     -31.1386 
-5.42029e-05      10.3834      24.3442 
-1.79200e-05      5.36249      12.2723 
-1.79943e-05      6.67336     -109.250 
3.60989e-05      9.96640      64.8241 
-9.05297e-05      14.0226     -133.094 
1.80299e-05      10.2565     -56.7761 
-7.27280e-05      11.1990     -31.1902 
1.80173e-05      9.61523     -85.1068 
3.63010e-05      12.1921     -126.665 
-5.44446e-05      10.7937      69.0463 
-3.61960e-05      6.21040     -24.7505 
1.80607e-05      12.0241     -53.4526 
3.63680e-05      10.2734     -56.8381 
5.46436e-05      10.5864      105.112 
1.80711e-05      13.0576      130.154 
3.64256e-05      9.33105      57.1623 
-9.11491e-05      14.0359     -133.152 
1.82209e-05      5.69431     -155.955 
3.65134e-05      9.61692     -84.9909 
-1.81719e-05      12.5482     -136.485 
-1.82108e-05      10.3649      24.3904 
5.48674e-05      13.3058      42.5636 
-1.82228e-05      9.89582      7.08244 
-1.82053e-05      13.2845     -131.948 
1.81809e-05      9.78261      20.2114 
-1.82046e-05      12.4603      53.2212 
1.82441e-05      9.52147      12.3735 
-1.83959e-05      10.1679      8.36810 
-1.82525e-05      9.36513      6.74578 
1.82882e-05      13.0725      130.099 
-1.83294e-05      10.3203      24.3791 
-1.83188e-05      14.0629      43.3849 
1.83658e-05      13.0595      130.031 
1.83471e-05      12.6822     -127.956 
! Tentative model.
! Flux (Jy) Radius (mas)  Theta (deg)  Major FWHM (mas)  Axial ratio   Phi (deg) T \
! Freq (Hz)     SpecIndex
-0.000551209      10.4240      150.582 
-6.13330e-05      12.2710      34.4412 
2.05183e-05      11.4758     -38.9873 
-7.55614e-05      6.29403      45.9012 
5.72110e-05      11.4477     -38.9725 
-0.000208201      10.0945     -68.0089 
-5.52809e-05      2.86007     -163.339 
-1.91046e-05      6.82607     -125.460 
8.72339e-05      8.72977     -99.0955 
-7.28053e-05      12.2597      34.3641 
-0.000133559      10.9334      52.2077 
0.000160430      3.24197      170.770 
-0.000102827      7.23339     -123.382 
-3.63864e-05      6.66084     -109.469 
7.02716e-05      8.00902      149.208 
-0.000174508      4.25601      36.9776 
-0.000286120      13.8185      134.120 
-3.50227e-05      10.1915      57.3391 
-4.96506e-05      6.82144     -125.694 
-0.000154824      11.5788      141.170 
3.45709e-05      1.95182     -135.830 
3.42292e-05      5.70424     -156.221 
-6.70093e-05      6.27968      45.7742 
6.34121e-05      9.01075      92.7989 
-1.73728e-05      5.35836      12.0649 
-3.37965e-05      4.14005      74.0166 
1.71151e-05      11.4603     -39.0502 
-6.19818e-05      9.75090     -62.3838 
-7.89357e-05      6.66753     -109.631 
0.000225890      7.57580     -26.4974 
-0.000106203      8.18010     -89.7198 
-4.86240e-05      8.15414     -66.8937 
-0.000251269      11.1588      113.671 
-4.89744e-05      12.8577     -37.7968 
3.30823e-05      7.64094     -11.7805 
4.87482e-05      6.83593     -149.007 
-4.65523e-05      12.2432      34.4169 
-3.16297e-05      10.6632     -154.444 
7.83870e-05      3.24524      170.422 
-3.23856e-05      8.31733     -70.9115 
-6.11939e-05      5.37792      12.0203 
3.22880e-05      8.96270      100.934 
4.69171e-05      1.96621     -136.236 
0.000160650      6.85825     -85.8191 
-8.88562e-05      10.1868      57.5892 
3.18929e-05      1.89452      10.9541 
-7.37109e-05      12.0181      132.505 
4.65443e-05      9.37829     -78.8099 
-1.61336e-05      2.87924     -163.453 
-0.000134527      4.12640      73.6731 
4.60695e-05      7.99185      149.135 
-7.55680e-05      7.30624     -139.552 
8.84181e-05      8.19622     -119.693 
8.78590e-05      9.36483      156.994 
-1.57959e-05      11.2846     -30.9289 
4.54474e-05      9.15976      69.1511 
-1.57176e-05      7.22775     -123.602 
0.000101053      10.6749      120.264 
-0.000186476      12.8922     -49.3409 
0.000198979      8.95893      100.808 
-1.55706e-05      11.2294     -65.0324 
7.25437e-05      7.64505     -11.9273 
4.44180e-05      6.47336      123.788 
1.53500e-05      2.33529      123.826 
-0.000114332      12.0328      132.440 
-4.47596e-05      6.26575      45.9053 
-1.53287e-05      8.34278     -70.8266 
3.01158e-05      6.81880     -148.921 
-4.43048e-05      10.1020     -67.9037 
7.24075e-05      9.25810      51.0502 
-2.99205e-05      12.8296     -37.7810 
-0.000155254      8.69851      149.307 
-1.51412e-05      9.50192      107.138 
1.51022e-05      7.94793      67.8238 
-8.45775e-05      11.2210     -65.1250 
5.67850e-05      1.91050      10.2512 
1.49849e-05      4.73155     -26.3484 
1.49123e-05      3.86518     -19.6538 
1.49424e-05      13.2830     -41.0317 
7.05166e-05      2.35194      123.555 
1.49064e-05      9.61852     -148.260 
4.35204e-05      3.45913     -15.0808 
-1.48362e-05      11.2743     -30.8417 
-4.35371e-05      8.32389     -70.7814 
9.91336e-05      9.96586      64.5663 
-2.91122e-05      10.4672     -161.738 
-7.06678e-05      7.64534     -76.6908 
-1.46458e-05      9.49604      107.023 
1.46311e-05      13.2397     -41.0801 
-2.87383e-05      6.06399      48.4763 
-6.92227e-05      8.48087     -154.583 
-4.27810e-05      9.29811      137.179 
8.31894e-05      3.88402     -19.5546 
0.000123642      13.2548     -41.0233 
-8.22890e-05      5.90410     -87.8645 
-2.81581e-05      7.23884     -123.734 
6.88719e-05      7.96334     -160.791 
2.84833e-05      6.04665      80.2884 
-5.57419e-05      9.52103      107.103 
2.79104e-05      2.93639      65.8790 
-2.81836e-05      5.40592     -10.2290 
-2.83459e-05      12.8016     -37.7651 
2.82131e-05      4.22118      91.3575 
1.42759e-05      5.69407     -155.956 
4.10802e-05      4.71364     -26.4563 
-4.11745e-05      6.09370      73.4088 
2.76221e-05      1.98071     -136.637 
-2.81749e-05      4.27200      36.8162 
-1.41091e-05      8.12790     -66.9680 
-4.12158e-05      10.1205     -67.9463 
4.10647e-05      8.18633     -119.571 
-2.75226e-05      14.1563     -135.172 
8.09613e-05      6.28013     -99.1623 
-6.75402e-05      8.57123      103.907 
-4.05031e-05      12.2267      34.4699 
2.73582e-05      9.40181     -78.7140 
-1.37535e-05      4.70064     -47.7591 
-5.39349e-05      4.12083      73.9400 
1.38359e-05      9.72002     -90.1179 
2.69852e-05      7.70779      30.2243 
-4.03425e-05      6.25185      46.0369 
-2.69428e-05      4.69915     -61.2533 
2.71072e-05      3.47845     -14.9951 
1.36825e-05      6.03036      80.0691 
1.36509e-05      1.98172     -137.454 
-4.03134e-05      9.31171      137.089 
-1.36491e-05      12.1396      41.7276 
4.00747e-05      11.7521     -135.069 
-2.68963e-05      8.34937     -70.6970 
1.35711e-05      9.35498      51.6845 
4.01547e-05      7.92114     -123.570 
1.35798e-05      10.2458     -56.8683 
-2.68963e-05      5.38271     -10.0573 
2.66508e-05      9.97537      64.7194 
-1.35661e-05      12.7858     -37.8200 
5.33452e-05      7.56690     -26.3619 
1.34910e-05      9.24255      50.9723 
1.34316e-05      4.22076      91.0860 
1.34383e-05      10.0460     -84.5164 
-1.34279e-05      5.35854      123.275 
1.33903e-05      6.70048      179.316 
-1.33534e-05      6.76012    -0.339024 
1.33448e-05      7.66462     -11.8964 
-1.33109e-05      7.24997     -123.865 
-1.32878e-05      12.1545      41.6649 
-1.33386e-05      12.9407      44.4365 
1.31520e-05      11.5283     -43.8050 
1.31243e-05      9.40574     -78.5945 
-1.31250e-05      10.1280     -67.8414 
-1.31242e-05      11.3081      42.7781 
1.31528e-05      9.37068      51.7604 
1.31307e-05      10.8403     -143.553 
1.30810e-05      3.90958     -19.7327 
1.30940e-05      7.66877     -12.0426 
