! Center RA: 12 21 31.69052,  Dec: +28 13 58.50019 (2000.0)
! Established model.
! Flux (Jy) Radius (mas)  Theta (deg)  Major FWHM (mas)  Axial ratio   Phi (deg) T \
! Freq (Hz)     SpecIndex
  0.114216      0.00000      0.00000 
 0.0147313    0.0286526     -45.0000 
0.00328327    0.0202604     -90.0000 
0.00171030    0.0828082      104.162 
0.00281694     0.101837      101.476 
0.00326635     0.120062      90.0000 
0.000695837     0.201375      84.2257 
0.00467445     0.240124      90.0000 
0.00385420    0.0446338     -63.0042 
9.21959e-05     0.259634      90.0000 
0.00184680     0.392593      104.727 
0.00326759    0.0720098     -56.4755 
0.000369116     0.141777      81.7841 
0.00145704     0.412220      104.011 
0.000283695     0.121759      80.4216 
0.000227759     0.260423      94.4620 
0.000159144     0.657660      109.531 
0.000497926     0.170734      110.586 
7.09550e-05     0.297155      109.625 
0.000656832     0.316312      108.392 
0.000783076     0.480248      90.0000 
0.000562139     0.152624      113.162 
0.00130051     0.480675      92.4157 
0.00170959     0.334882      107.339 
0.000673886     0.145849      105.824 
0.000303339     0.683639      110.563 
0.000591847     0.100252     -53.2159 
0.000189077     0.709549      111.464 
0.000803010     0.126477      108.327 
0.000595266     0.354273      106.362 
0.000223135     0.735213      112.377 
0.000446693     0.761740      113.206 
0.00104101     0.141141     -45.0000 
0.000345069     0.128090     -51.1829 
0.000452628     0.788112      113.929 
0.000496691      1.03869      105.633 
0.000133800     0.461573      107.699 
0.000130978     0.480675      87.5843 
3.12955e-05     0.480914      106.965 
3.11656e-05     0.651397      107.913 
0.000147796     0.481892      85.2660 
0.000231780     0.805984      113.367 
0.000547533      1.06303      106.401 
0.000237795     0.467874      109.975 
0.000282249     0.626742      106.699 
0.000453728     0.121759      99.5784 
0.000160345     0.862036      93.9932 
0.000155205     0.483985      82.8750 
0.00141147     0.169793     -45.0000 
0.000174067     0.798447      112.081 
0.000459507    0.0446338     -153.004 
0.000477638     0.475177      112.272 
0.000405761     0.841826      94.0893 
4.70636e-05     0.486913      80.5086 
0.000230656     0.817257      111.547 
0.000421206     0.475398      75.3715 
0.000139070     0.199903      126.913 
0.000419865      1.06870      107.404 
0.000449576      6.17429      118.222 
0.000445010      4.01027      109.523 
0.000818566     0.938962     -153.414 
0.000108144     0.709570      139.589 
0.000446139      4.27970      102.413 
7.34029e-05     0.810035      110.214 
7.35795e-05      3.18323     -177.473 
-0.00120248      1.95373      169.376 
0.000789579      4.04762      121.259 
0.000227128      5.58421      92.2565 
0.000414946      4.13283      117.686 
0.00104931      3.16299     -177.457 
0.000190169      4.05778      121.494 
0.000131277     0.803259      108.858 
3.47211e-05      2.39435      96.2252 
4.95667e-05      4.07507      121.346 
0.000124995     0.212689      131.281 
0.000679615      2.37215      95.8098 
6.59281e-05      1.07320      116.583 
0.000768251      7.26718      104.990 
0.000255691      2.11361      147.365 
0.000296631      5.58504      92.4641 
0.000119307      3.20190     -177.851 
6.22841e-05     0.621223      104.909 
0.000357661      2.34361      164.664 
3.10572e-05     0.724535      140.590 
0.000261624      6.16868      111.493 
5.99078e-05      4.03590      109.688 
0.000157062      1.08207      117.507 
0.000147967      6.64167      112.857 
0.000721069      1.62598      148.070 
0.000495100      1.88361     -138.020 
9.95109e-05     0.797167      107.531 
5.74091e-05     0.860863      92.6479 
0.000567407      2.40879      144.458 
5.76023e-05     0.616492      103.157 
0.000183160     0.280627     -175.860 
1.42763e-05     0.480914      73.0353 
0.000138611      4.00354      109.250 
0.000535897     0.878924      41.2964 
0.000330046      6.18231      117.977 
0.000270027      1.08805      107.085 
0.000216392      6.63412      112.702 
0.000155440     0.226037      135.000 
0.000237509     0.631341      100.963 
0.000522180      4.02937      109.427 
0.000170411      6.40595      115.127 
2.70247e-05      2.46746      163.025 
1.34754e-05     0.753057      140.377 
5.16629e-05     0.850886      60.4055 
0.000210357      2.48685      163.162 
0.000418628      2.52114      138.209 
0.000257333     0.840624      92.7117 
0.000525994      1.73323      161.157 
0.000432411     0.860688      59.2761 
0.000137414      6.16129      111.318 
0.000555242     0.921556     -152.872 
0.000353579      5.60615      92.6544 
0.000111811     0.449587      110.825 
0.000388052      2.09657      147.066 
0.000139910      1.89722     -137.565 
3.68053e-05     0.791300      106.132 
9.42382e-05      1.06480      117.992 
0.000288747      2.32408      164.532 
5.66175e-05      2.50893      171.296 
0.000502194      1.69640     -142.187 
2.31152e-05      6.15395      111.142 
9.79443e-05      7.24834      105.030 
3.38796e-05      6.20972      111.940 
0.000171766      6.62633      112.540 
9.69979e-05     0.800182      103.007 
0.000359580      6.32475      121.023 
2.23528e-05      6.14694      110.973 
0.000167282      2.49978      163.736 
0.000382815     0.627803      99.1471 
0.000100058      6.07829      120.449 
8.15411e-05      6.21703      112.107 
0.000229945      6.15178      110.559 
0.000302763      1.10744      106.777 
0.000144870      4.14193      117.925 
1.06128e-05      2.53208      170.912 
4.10017e-05      1.09157      118.450 
5.08488e-05      6.41426      115.285 
0.000181096      2.55134      170.981 
0.000117739      2.35001      95.3683 
9.86856e-05      3.14350     -177.442 
0.000259215     0.300838     -176.138 
0.000135880      4.35126      119.155 
0.000235586      7.18530      105.004 
5.70467e-05     0.240790      138.411 
0.000192352      1.86751     -133.274 
0.000172763      6.61859      112.378 
0.000199717      1.11345      107.776 
0.000591317      1.75171      161.363 
4.73137e-05     0.895107     -150.577 
0.000382334      4.26507      102.735 
0.000122745      1.07446      118.946 
9.98377e-05    0.0562440     -135.000 
0.000137571      6.38829      115.201 
-0.000787305      1.14249     -147.145 
0.000187392      2.51924      163.865 
9.47056e-06      3.12326     -177.425 
3.69481e-05      3.10302     -177.408 
0.000115693      6.22469      112.280 
0.000374435      2.35200      95.8597 
9.17227e-06      2.08475     -139.291 
9.62082e-05     0.878166     -149.951 
0.000108775      2.09958     -139.639 
0.000111436      3.08353     -177.392 
0.000207323     0.184676     -40.5508 
-0.000464844      3.98157      112.447 
0.000162666      3.22215     -177.865 
0.000219844      6.08820      120.608 
0.000116279      5.72181      95.0107 
0.000229140     0.893674      40.4708 
4.70255e-05      1.83163      148.400 
0.000193534      7.28555      104.305 
7.36622e-05      7.28175      104.801 
0.000132941     0.860688     -149.276 
0.000125171      6.61118      112.222 
0.000274693     0.983930      26.5455 
0.000148096      6.02437      92.0915 
0.000149863      3.06329     -177.374 
8.48499e-05     0.795867      101.585 
0.000235464      6.14470      110.382 
-0.000165343      6.65964      108.384 
9.20117e-05     0.839927      91.3822 
-0.000148050      4.17295      99.1049 
8.84025e-05      1.87011     -138.481 
-0.000116564      4.40947      98.6127 
0.000122693      2.31895      164.997 
4.40886e-05      2.12814     -139.576 
5.60527e-05      4.15078      117.556 
0.000123888      1.60882      147.689 
0.000155769      2.53870      163.992 
-6.88996e-05      5.81433      115.682 
7.66241e-05      6.39663      115.360 
4.88135e-05      5.58591      92.6641 
4.32074e-05      1.88231     -132.851 
0.000174817      6.60355      112.059 
0.000100827     0.843976     -148.599 
9.26360e-05      6.23239      112.452 
-7.59076e-05      5.83260      115.596 
4.89452e-05     0.952783     -140.946 
5.99695e-05      5.81091      93.5537 
0.000111241      2.14360     -139.927 
7.02132e-06     0.443026      108.466 
-0.000129978      6.56108      114.299 
-0.000154549      4.48683      103.669 
0.000154037      3.06425     -177.010 
-0.000160722      4.17609      99.3692 
4.53591e-05      1.86859     -132.396 
1.33019e-05      1.84233      147.864 
0.000140666     0.965195     -140.046 
-7.16308e-05      5.84477      114.459 
5.71415e-05      2.29184      99.5363 
1.96274e-05      1.08441      119.883 
6.35108e-05     0.725357      155.556 
6.33057e-05      6.46295      110.846 
3.82428e-05     0.860182      91.3497 
3.13661e-05      2.40380      143.799 
-2.52917e-05      6.76169      116.716 
-8.76266e-05      7.36470      102.869 
3.12367e-05      2.53628      138.514 
2.51860e-05      6.40533      115.523 
-6.81696e-05      2.97979      180.000 
1.86734e-05      4.14145      117.308 
3.08518e-05      1.06689      120.425 
3.69541e-05      4.31078      100.420 
-4.28744e-05      1.13161      43.5491 
-3.06968e-05      5.86254      114.380 
1.83245e-05      4.20885      121.193 
2.45427e-05      2.82022      168.131 
6.19551e-06      6.12571      110.448 
-1.23366e-05     0.639305      69.8847 
1.22356e-05      1.61974      147.083 
-3.03861e-05     0.620320      69.2412 
6.12838e-06      2.46009      162.002 
1.21250e-05      5.82992      93.3426 
1.21310e-05      6.41409      115.687 
6.07820e-06      5.88126      91.1697 
6.05788e-06      4.32724      100.117 
0.000888042      10.2658      6.48865 
0.000665248      11.6798      120.343 
-0.000538452      10.1980      48.1795 
-0.000451753      10.2037     -132.857 
-0.000526214      2.73995     0.831680 
0.000734449      2.62618      20.5062 
-0.000248875      4.23789      170.491 
0.000769578      11.5977      30.2364 
-0.000605501      10.8438     -117.936 
-0.000428815      12.3252     -42.9622 
0.000432622      8.30883      38.7455 
0.000638414      12.3610     -55.2815 
0.000535486      3.88502     -118.936 
0.000483565      3.44051     -150.007 
0.000273886      9.24871      116.731 
-0.000270200      9.53043     -54.3076 
0.000625212      9.35800     -80.9017 
-0.000419769      3.98203      96.0576 
-0.000373849      4.41549     -109.580 
-0.000419060      10.1073      56.6238 
-0.000265918      9.08631      146.309 
-0.000216391      4.25787      170.536 
-0.000416232      5.82336     -152.378 
-5.73277e-05      10.3248      134.058 
0.000313855      7.96981     -117.335 
0.000214500      8.63860     -118.936 
-0.000416280      10.4954      131.835 
-5.62834e-05      6.48496     -63.0406 
-0.000161365      10.1900     -132.774 
-5.54791e-05      10.3249      134.214 
-0.000407834      7.50122     -162.145 
0.000256590      8.86093    -0.907378 
0.000262414      9.52539      125.859 
-0.000154747      6.50236     -63.1185 
-0.000152862      9.14149      91.1288 
-0.000443068      10.3104      134.292 
-0.000156143      13.8496     -43.5357 
0.000201289      8.05217      130.972 
0.000252310      11.6973      120.292 
0.000262476      6.35855      157.630 
-0.000248058      9.65995      44.2447 
0.000103914      7.88401      101.708 
-0.000149061      3.00057     -42.8414 
-0.000101838      9.96226     -131.339 
-0.000197261      10.1964      48.0187 
0.000197838      10.2456      161.564 
-0.000246660      10.8189      24.8107 
0.000165836      7.88714     -2.47014 
-0.000196699      10.9564     -158.586 
-0.000245306      10.2450      10.9141 
5.15108e-05      8.87984      161.075 
0.000244905      11.0108     -25.9591 
5.12611e-05      4.74605      156.134 
0.000147940      10.9939     -117.403 
-9.65838e-05      5.40029      150.489 
0.000194364      8.41661      67.2139 
0.000146286      11.7799      131.077 
-0.000145772      9.86219      106.011 
-0.000296535      8.52085      141.195 
-9.62926e-05      10.0892      173.281 
0.000191499      7.90797      101.822 
-9.73374e-05      8.88766      32.6905 
9.68767e-05      8.86138      161.034 
-0.000239484      8.75686     -174.759 
-9.61617e-05      8.54577      139.937 
-9.73622e-05      9.96241     -69.3086 
0.000191148      9.54182      125.788 
9.57897e-05      10.7872      117.137 
-0.000232100      12.1424     -52.0912 
-9.56006e-05      13.8349     -43.5935 
0.000141944      7.45194      86.7674 
0.000141087      12.8756      39.3263 
9.48142e-05      4.14332     -114.834 
9.36765e-05      11.8875      123.958 
-4.80577e-05      7.46809      177.391 
-9.35921e-05      7.03967      146.945 
9.31690e-05      5.65799     -56.5333 
9.33875e-05      10.6872     -106.638 
-9.27569e-05      12.2088     -33.5084 
4.69897e-05      7.96200      141.832 
-4.70054e-05      7.35024      83.2813 
4.69041e-05      4.23103     -27.2876 
-4.68600e-05      9.94889     -131.251 
4.68246e-05      8.54282     -44.0533 
4.67042e-05      9.47504      112.721 
-4.66537e-05      4.42232     -109.828 
-4.65772e-05      10.2953      39.0094 
4.64171e-05      8.26696     -113.528 
-4.63374e-05      9.94416     -69.2689 
-4.61643e-05      5.32067     -109.999 
-4.61091e-05      1.91266     -6.60084 
-0.000156334      10.8021      161.432 
4.58649e-05      5.66014     -112.216 
-4.57794e-05      9.73436     -41.4186 
4.56258e-05      7.96087     -117.210 
0.000415768      6.26409     -120.088 
-0.000954734      10.0159     -81.2695 
0.000853185      9.10731      108.435 
-0.000464527      3.73096      154.940 
-0.000432518      9.85648     -116.774 
0.000207727      12.0699     -39.1488 
-0.000434826      3.98802     -45.0000 
-0.000323614      6.07460      69.7720 
0.000235807      7.46603      165.257 
-0.000101074      11.6520     -48.8984 
0.000248607      5.27566     -43.9223 
-0.000177345      3.97372     -45.2066 
0.000161554      6.28163     -119.995 
-0.000185106      12.2355     -139.908 
0.000138907      5.05821      172.961 
-9.74741e-05      12.0013     -52.1750 
-0.000254883      10.2474     -171.697 
-0.000180999      5.79950     -155.557 
0.000182526      8.01331      60.8787 
-0.000472605      9.71935      78.9659 
-9.29814e-05      10.4738      161.287 
-0.000447761      11.6653     -48.8234 
9.24147e-05      6.29140     -120.149 
-0.000280977      11.4007     -141.480 
0.000135548      7.83644     -37.2210 
0.000321488      12.0542     -39.2096 
-4.65062e-05      12.0297     -52.1579 
0.000361315      7.63812     -79.8945 
-0.000177113      13.8698      132.781 
-0.000410742      10.4546      161.252 
-0.000126770      7.30839      83.4025 
0.000390838      9.89447      25.3718 
-8.75859e-05      9.30921     -46.5677 
0.000108324      8.11619      34.3571 
-4.44401e-05      8.85209     -53.5420 
-0.000796123      12.0173     -52.2342 
8.55744e-05      6.59742     -122.246 
0.000290554      7.90738     -2.46381 
0.000348207      9.10552     -75.1106 
-0.000449620      10.3479      99.0074 
0.000204253      10.7960      116.992 
0.000245369      9.89680     -61.7775 
-0.000160684      13.4020      130.702 
-0.000159026      5.80791     -155.375 
-0.000180935      9.14579     -47.6602 
-0.000121986      6.62672     -177.404 
0.000122611      6.11017     -140.576 
-4.26181e-05      5.08858     -129.255 
-0.000152991      3.96944      96.9490 
-0.000104485      6.11643      169.832 
0.000260805      10.4380     -63.4847 
-0.000303136      12.1888      132.405 
-0.000145137      9.84823     -116.930 
0.000188817      7.85198     -37.1349 
0.000150019      11.2965      153.615 
-7.90198e-05      8.86370     -53.4405 
0.000186949      9.29497      106.756 
-0.000252689      12.1299     -52.1667 
-0.000290396      9.32315     -46.4773 
-0.000374586      13.8417      132.775 
0.000268266      9.49337     -151.977 
0.000187494      3.45973      79.3384 
-0.000304085      10.4506      140.124 
0.000152433      7.90280      61.4273 
-0.000214712      5.61262     -36.0150 
4.03549e-05      3.86004      90.3007 
0.000278296      9.85752     -45.5767 
-4.02393e-05      6.13923      169.678 
-0.000152650      7.12372     -21.2321 
-0.000114725      7.42927     -67.0218 
0.000147147      8.13230      34.2795 
7.45865e-05      11.4484      153.435 
-7.50890e-05      3.72242      155.222 
0.000112739      9.29231     -158.403 
-7.40376e-05      5.07578     -129.078 
-0.000157686      3.26805      68.4600 
-3.89688e-05      10.4656      140.192 
0.000262376      7.64157     -79.7505 
0.000147093      10.0688     -60.2270 
7.58027e-05      6.60825     -122.394 
0.000289973      9.95627      72.5852 
-7.56697e-05      12.2534     -140.098 
-0.000147922      9.36206      88.8978 
-3.84131e-05      9.57477      21.3144 
-0.000270761      11.2532      32.2212 
3.83410e-05      8.48870     -62.6512 
7.29885e-05      8.34495      44.0272 
-0.000227477      9.34931     -131.704 
3.80163e-05      7.48490      165.295 
7.41651e-05      7.26099     -179.053 
3.78983e-05      10.6022     -164.575 
0.000211190      9.53294     -156.769 
-0.000167179      10.1962      45.2385 
0.000198157      9.66974     -92.6064 
-0.000341236      5.41155      48.2939 
-0.000132879      6.05559      69.7057 
-0.000141526      11.6500     -48.7578 
3.71822e-05      10.0496      172.336 
-0.000107055      4.22783      36.9268 
-3.69977e-05      6.12003      169.645 
-0.000134043      7.28604      83.5366 
-0.000102777      7.26216      75.1582 
-7.21840e-05      8.23065     -129.184 
0.000104640      6.09732     -140.723 
6.96221e-05      3.86020      90.5903 
-0.000286757      6.60648     -177.396 
-0.000159552      8.97525      33.0895 
-0.000180212      6.45770     -85.7351 
-0.000218350      9.59365      21.2705 
7.04968e-05      10.8052      117.088 
0.000169800      10.0269      172.436 
6.98298e-05      8.43066     -30.8247 
0.000160797      8.48006     -62.4667 
-0.000138152      8.78982     -113.181 
6.96240e-05      13.7605      45.4131 
0.000156170      6.63581     -122.443 
-0.000127837      10.0129     -81.3841 
0.000385356      10.5968     -164.680 
6.86180e-05      3.07107      4.84967 
-0.000135171      13.1480      139.381 
-0.000164967      10.1400      56.3440 
0.000102959      9.47872      104.417 
9.95523e-05      8.43678     -101.071 
-3.51145e-05      7.08819     -20.4801 
-0.000133566      12.2560     -140.231 
0.000394433      9.91399     -61.8308 
0.000243549      10.5420      15.0630 
6.56429e-05      9.27348     -158.357 
0.000223479      9.48225      115.484 
0.000218887      8.44106     -30.9428 
0.000158497      8.69528     -62.3138 
3.44452e-05      6.87860     -124.340 
0.000299464      9.07307      111.870 
9.73467e-05      8.69909     -176.177 
-0.000153318      9.38120      89.0238 
-3.40131e-05      13.7420      132.818 
-0.000324527      7.14926     -21.3268 
3.39760e-05      8.80015    -0.522766 
3.38739e-05      8.88621      161.360 
-0.000118298      13.2156     -40.0272 
-3.37641e-05      8.21787     -129.074 
-3.36183e-05      13.2687     -136.343 
9.64833e-05      3.43982      79.2759 
-0.000123460      11.4203     -48.5481 
0.000273335      5.60972     -105.724 
0.000256221      9.29951     -158.291 
3.34832e-05      7.22159     -178.887 
-0.000427550      9.56879      33.4882 
-6.48419e-05      10.2104      45.1578 
-9.51485e-05      9.63130      44.2424 
0.000715845      13.7468      45.4711 
0.000183969      4.83633     -58.8701 
0.000122765      7.56595      11.2787 
3.31467e-05      10.5078      118.664 
9.52890e-05      6.88962     -124.474 
-0.000153171      7.10647     -20.4250 
-0.000182203      9.08511      7.84232 
0.000171389      3.73924      63.9800 
-0.000299286      12.2025      132.475 
3.27282e-05      7.39395      18.7788 
0.000178286      7.30665      49.5525 
0.000238395      9.45407      104.329 
0.000147968      4.31234     -40.4834 
-3.24985e-05      8.78186     -113.060 
-0.000204645      10.9397      47.1487 
6.12254e-05      10.4652      26.5651 
-0.000325765      10.1071      94.1981 
-0.000372689      6.48479     -177.878 
-6.17285e-05      13.2548     -136.406 
-3.22909e-05      13.7282      132.756 
-0.000258314      10.4372     -36.0328 
0.000223784      2.57004      69.0249 
3.21083e-05      4.96685      120.486 
-0.000110767      4.21225      37.0863 
-3.19990e-05      8.13400     -128.110 
6.20093e-05      6.26433      16.7006 
-0.000205805      8.77120     -113.233 
0.000118797      7.15034     -79.0379 
0.000182298      10.5584      145.107 
0.000240046      11.2295     -50.7817 
-0.000218778      11.4923      127.150 
0.000189196      9.93909      25.3791 
-3.16055e-05      9.76490     -178.239 
0.000305914      8.74029     -7.76140 
5.71198e-05      11.0120      111.859 
-3.14306e-05      6.72527      85.0521 
-0.000171030      10.1069     -145.808 
-5.75656e-05      5.78175     -155.477 
6.08528e-05      7.86814     -37.0458 
3.13312e-05      9.56996      122.626 
0.000106649      8.35904      44.1271 
6.08159e-05      8.70452     -160.401 
0.000221657      10.0296      172.321 
-0.000143548      11.9372      52.4191 
3.11429e-05      10.0864     -60.2842 
-0.000800868      13.1629      139.437 
3.10254e-05      6.07950     -140.338 
-0.000200917      12.2737     -140.423 
-3.09805e-05      5.40054      7.02331 
-0.000357565      10.2336      39.2897 
-0.000112904      6.75942     -68.2907 
0.000110403      9.80354      174.615 
0.000115154      10.3593     -169.318 
8.70960e-05      10.8315     -63.8131 
0.000160590      10.4981      118.567 
-0.000216253      9.74527     -178.120 
5.81221e-05      5.68892     -115.845 
-5.98624e-05      8.10555     -128.086 
0.000166933      12.0385     -39.2706 
-3.04578e-05      7.83163      174.871 
-5.88491e-05      9.33660     -46.3905 
-0.000159311      9.17093      74.5685 
0.000139646      11.3738      147.567 
0.000139465      6.86250     -124.432 
3.01580e-05      8.26972     -137.939 
-8.48289e-05      5.33185      147.565 
8.66375e-05      4.12720      10.3272 
8.53223e-05      9.57655      122.462 
-2.99501e-05      6.65574      171.356 
8.18041e-05      11.3146      153.661 
-0.000977589      10.3447      98.8966 
5.88864e-05      6.06391     -140.216 
-7.71516e-05      7.69134      21.8274 
0.000241369      11.3458     -125.821 
-0.000215590      11.9098     -55.8834 
0.000336494      11.8615     -122.538 
-0.000240183      9.53099     -96.9913 
8.59437e-05      7.74530      2.07097 
-0.000266398      13.1914      139.427 
0.000148627      13.2651     -45.0000 
0.000258143      10.1213      91.0195 
-2.93436e-05      8.24330      9.07132 
-0.000266042      7.81145      174.858 
-0.000155977      12.8283      128.924 
0.000210423      7.94553      76.3155 
-0.000209665      12.4758      37.1828 
0.000432847      7.03935     -6.03330 
-0.000257279      11.2253      32.1889 
-2.90371e-05      5.39809      48.4544 
-2.90295e-05      7.10063     -59.5326 
5.56081e-05      5.26109     -44.0754 
2.89548e-05      9.77750     -93.4011 
2.89264e-05      7.24109     -178.890 
5.62450e-05      3.40075     -79.1512 
0.000141052      6.21660      29.7028 
4.73975e-05      3.16940      19.9194 
-0.000223089      9.66666      42.7350 
2.87209e-05      10.6508     -44.0123 
0.000181104      8.72291     -160.444 
5.54225e-05      8.45281     -100.910 
0.000130182      8.25616     -138.043 
0.000225780      10.9565     -63.2015 
0.000305595      10.2634     -38.4334 
-2.84439e-05      10.1513      56.2488 
0.000403505      9.45910      104.447 
7.27409e-05      13.0249     -49.6078 
0.000267504      9.47387      115.378 
0.000454781      9.77632     -93.2825 
-2.81707e-05      2.40438      78.9706 
-0.000184757      9.13677      96.4083 
-2.81579e-05      9.73923      78.9888 
5.52132e-05      6.08165     -140.603 
0.000343293      10.6654     -43.9367 
2.79872e-05      10.4470     -63.3853 
2.79679e-05      7.76133      109.414 
2.79378e-05      10.7357     -135.980 
0.000192821      3.19538      20.1371 
0.000200986      8.45844     -30.8722 
0.000123001      7.58203      11.1042 
8.08881e-05      8.48944     -62.3455 
-0.000146979      9.85708     -117.031 
-2.77715e-05      11.3923     -48.5595 
-0.000321992      6.45570     -67.4083 
-5.42219e-05      12.0753     -147.994 
-7.88721e-05      3.48249     -103.952 
-0.000461477      11.7810      29.8277 
2.76769e-05      8.50579     -175.547 
2.74816e-05      10.6222     -44.0097 
-2.75181e-05      9.31965     -3.69317 
-0.000127059      8.09353     -127.977 
-0.000368032      10.8449     -49.9371 
-2.73636e-05      9.61670      134.829 
-5.22726e-05      12.2962     -46.9115 
2.73356e-05      11.0196      111.957 
7.22814e-05      8.71323     -62.3757 
-7.80651e-05      9.76888      59.0770 
0.000189942      14.1013      134.140 
-0.000124189      8.22329      9.09358 
-0.000328596      13.5380      133.623 
-5.17607e-05      9.64582      44.1584 
2.71556e-05      9.74209      30.1970 
0.000151631      7.76409      1.91635 
8.68288e-05      7.58582      11.2488 
-8.70865e-05      10.0321      32.2957 
7.79491e-05      8.50425     -175.683 
0.000285518      9.95739      25.3291 
0.000126886      4.82589     -59.0760 
-5.23084e-05      11.9211      52.3597 
0.000124818      10.9277     -55.8167 
2.69045e-05      11.4565      49.1060 
5.28759e-05      10.5369      14.9606 
-0.000173801      12.2581     -140.362 
-0.000144229      6.09648      169.798 
2.67886e-05      7.88433     -36.9571 
2.67585e-05      11.2576     -50.7700 
-5.18300e-05      10.1625      56.1539 
2.66076e-05      8.34451      44.2240 
0.000121379      6.51836     -55.6294 
5.22272e-05      5.69778     -116.028 
5.18499e-05      6.03050     -139.709 
-9.89705e-05      10.3745      137.266 
9.92764e-05      6.57697     -125.719 
-0.000252754      11.4057     -48.4832 
-0.000148756      6.39928      40.3105 
-5.17401e-05      9.10444      7.82557 
-0.000215023      8.76323     -113.112 
-0.000107071      10.4122      129.623 
-5.19939e-05      13.2560     -136.528 
-0.000228786      9.33912     -3.68546 
-5.17555e-05      7.12546     -20.3682 
-0.000364034      12.0053     -52.3078 
0.000117649      3.40462     -78.8164 
-5.00702e-05      9.08400      88.2343 
-9.82847e-05      9.10449      49.2748 
2.61313e-05      9.68997     -92.6010 
0.000122568      11.2228      41.3867 
0.000189991      2.22805     -53.0220 
7.35010e-05      9.35907     -171.646 
2.60400e-05      9.56569      122.360 
2.60304e-05      8.78048    -0.391726 
-5.01164e-05      6.63743      132.925 
0.000117246      7.86147      4.23134 
7.62193e-05      10.5940     -44.0042 
-6.90737e-05      6.44794     -67.5745 
-2.59043e-05      3.52724     -155.905 
0.000709515      10.4612     -107.810 
-7.46716e-05      12.2478     -56.7257 
7.47113e-05      9.42328      102.505 
-0.000120354      6.30984     -35.4498 
-2.57103e-05      10.0073      49.9458 
7.23148e-05      10.7211     -135.905 
-0.000171836      9.84658     -12.3162 
0.000140648      8.48126     -62.1676 
2.55137e-05      5.75684     -21.3978 
-0.000433419      13.9176      44.1852 
7.21323e-05      4.32552     -40.6875 
4.76045e-05      7.62936      67.3342 
0.000265721      9.57136      122.195 
-4.92212e-05      10.2013     -41.5051 
-9.58855e-05      10.2487      39.2206 
2.52125e-05      10.3954     -169.469 
2.52174e-05      8.44914     -100.780 
-4.93645e-05      10.9720      124.154 
-4.91131e-05      5.31476      147.448 
2.50903e-05      11.6075      151.492 
-9.44498e-05      9.50844     -96.8850 
-9.15612e-05      7.29166     -101.709 
0.000477657      11.7759      59.8208 
0.000137245      10.2532      27.9154 
-4.75793e-05      8.15441     -166.239 
4.88267e-05      14.2289      45.9124 
-0.000112091      9.37792     -131.714 
-2.48623e-05      10.4361      161.217 
-0.000890639      12.1132      144.813 
6.87245e-05      7.91349      149.805 
4.83921e-05      5.70637     -116.205 
0.000137503      9.09228     -157.494 
2.47572e-05      7.74223      109.464 
-6.85401e-05      3.54574     -156.039 
0.000175362      10.0061     -87.9371 
2.45578e-05      8.04815      142.676 
-2.45667e-05      10.2009      56.0294 
0.000195193      8.94709      117.996 
4.80877e-05      8.77901      107.772 
0.000134984      8.48404     -175.673 
6.99765e-05      8.25552     -116.938 
-2.44413e-05      6.40434     -154.077 
2.43869e-05      10.5565      14.9322 
-0.000150981      9.58631      21.1576 
6.95321e-05      10.6367     -43.9338 
-0.000146930      9.75849      59.1791 
-2.41068e-05      8.65839      26.6250 
-0.000164394      6.38441      40.4238 
-0.000160236      10.0486      32.2362 
0.000151481      6.02879     -139.442 
-0.000367127      10.1086      94.3126 
-4.71695e-05      11.1036     -120.168 
-0.000382980      11.8984     -55.9642 
-4.64604e-05      11.6781     -48.7514 
9.06076e-05      11.3340     -125.738 
2.38241e-05      8.45951     -13.6738 
2.37989e-05      12.7574      44.2398 
-2.37850e-05      8.49111     -132.901 
-6.87069e-05      5.67972     -10.7592 
-2.37197e-05      12.0588     -147.945 
-0.000114476      12.1896     -139.727 
-4.68369e-05      12.1489     -57.0962 
-6.70331e-05      10.4491     -36.1227 
-6.78016e-05      10.2122      55.9351 
-4.51909e-05      12.3100     -46.8427 
0.000297068      9.41891      102.384 
2.34112e-05      11.3847      147.481 
-6.57312e-05      3.50216     -103.872 
-4.62192e-05      6.09306      169.979 
-0.000229664      3.49064      139.647 
8.55811e-05      6.64670     -122.590 
-6.71668e-05      10.0959     -145.900 
-4.55896e-05      6.77824     -68.3541 
-2.32950e-05      8.39644      93.5508 
-8.62572e-05      4.99753      146.756 
0.000151727      8.78522      107.898 
-0.000150083      10.2442      93.9188 
2.32120e-05      8.03634      142.787 
0.000322215      11.5394     -152.545 
-6.50073e-05      6.32350     -49.1045 
-4.55634e-05      10.4631      140.042 
4.53642e-05      6.72020     -90.6846 
4.59771e-05      8.74200     -160.489 
2.31733e-05      9.08809      108.475 
-0.000357426      12.2477     -33.6112 
0.000291057      11.7152     -125.482 
4.48790e-05      9.84505      174.520 
0.000148374      7.95035      76.1736 
0.000444894      11.0196      68.0428 
-0.000111609      12.1383     -57.1735 
4.49307e-05      10.0768     -60.3805 
2.29149e-05      10.4146     -169.488 
8.63634e-05      9.43635      27.1071 
-2.28393e-05      5.01861      148.525 
-0.000167009      11.2897     -136.581 
0.000267287      8.19673      22.3741 
2.27866e-05      10.5659     -44.0044 
0.000163084      9.67599      73.5523 
4.43210e-05      8.42923     -100.806 
-2.27655e-05      10.9607      124.066 
4.48859e-05      13.0288     -46.4305 
0.000304348      9.26995      106.676 
0.000468861      14.2008      45.9120 
6.49012e-05      8.03205      142.588 
-0.000162160      13.2442     -40.0379 
-0.000177423      9.77525      59.2376 
2.25428e-05      8.27124     -138.137 
0.000116329      7.74900      109.605 
-2.25157e-05      4.54256     -82.1577 
-8.63888e-05      10.0329     -81.4014 
-2.24456e-05      8.56147      141.066 
-8.50229e-05      13.0562      133.819 
0.000353948      13.6311      48.5708 
-0.000162108      11.1138     -120.258 
0.000104395      9.92322     -61.7315 
-8.42833e-05      13.2568     -136.651 
2.23162e-05      4.96468     -142.529 
2.23374e-05      10.8146     -64.2422 
0.000410170      8.75462     -160.653 
-6.47039e-05      6.69506      171.408 
-8.46037e-05      10.2902     -82.4070 
-0.000282638      12.2162      132.545 
0.000154517      10.9391     -55.7289 
-0.000124356      10.3051      74.6948 
-7.82937e-05      7.38073      89.2252 
2.21428e-05      10.0443     -26.1056 
0.000115221      2.54460      69.2937 
0.000123530      6.57301     -125.962 
0.000820721      13.7613      45.5302 
2.22074e-05      9.96643      174.474 
-4.35928e-05      12.2613     -140.493 
-2.21042e-05      9.16022     -47.7424 
-2.21201e-05      9.25279     -15.4169 
-8.34217e-05      8.41591      93.5426 
0.000328658      10.8504     -19.9388 
4.21313e-05      8.24636     -116.812 
-8.52159e-05      12.3733      144.872 
2.19072e-05      14.2153      45.9688 
0.000111548      9.09454      108.596 
-4.30875e-05      10.3608      137.348 
4.27161e-05      7.84014    -0.290644 
0.000190044      5.59094     -105.779 
-0.000156341      11.6493      139.666 
6.27204e-05      10.2044      88.3144 
-8.38024e-05      7.13109     -21.3838 
8.29572e-05      7.27637      52.5971 
-2.16718e-05      10.4328     -36.1883 
6.19047e-05      10.3960      149.094 
2.16268e-05      11.3056      153.753 
4.24669e-05      10.8061     -64.3353 
-0.000145601      12.1742     -139.665 
-2.16371e-05      5.27530      146.911 
8.06723e-05      9.04233      26.3949 
2.15853e-05      11.2362      41.4642 
-0.000185851      12.1273     -57.2539 
-0.000154312      11.5041      127.228 
-0.000215067      12.5196     -43.5113 
-6.27389e-05      9.20927     -15.3657 
0.000102823      10.9657     -63.1071 
-2.13985e-05      5.20802      52.6463 
-4.17570e-05      9.06771     -142.978 
-2.13208e-05      10.7337     -153.913 
-0.000115765      9.20948     -54.1031 
-9.99258e-05      13.3873     -47.0579 
2.12591e-05      8.37359      44.0306 
0.000239336      12.4890     -135.974 
0.000172825      13.0301     -46.5541 
7.57394e-05      8.48581      35.6001 
-9.98878e-05      10.7372      125.141 
4.14329e-05      10.5744      145.168 
-0.000170620      6.31448     -35.2029 
2.12369e-05      10.2259      27.8682 
-6.13714e-05      2.39231     -84.2393 
-6.13721e-05      10.0378      32.1384 
-0.000135254      9.86630     -117.136 
0.000169290      11.3065     -154.204 
-0.000100146      12.5354      50.6990 
-4.12848e-05      9.09128      49.3715 
0.000136492      9.69631     -70.8541 
7.93493e-05      7.67499     -93.5875 
2.10076e-05      6.71998     -90.5118 
4.18090e-05      9.94627      174.463 
7.34855e-05      10.0020      25.3366 
-0.000229576      11.1164     -156.572 
0.000186111      13.3109     -43.7209 
5.95644e-05      9.09834      43.1285 
-0.000186312      13.8597     -132.369 
-5.96366e-05      9.10425      88.2383 
7.97090e-05      11.8347      131.231 
9.56258e-05      11.2514      41.3959 
-5.88764e-05      13.7569      132.761 
-2.06885e-05      10.4476      139.970 
-9.70436e-05      4.60547     -84.0144 
9.79680e-05      8.05759     -75.4810 
-5.85899e-05      8.21554     -129.270 
7.97650e-05      11.3221     -125.655 
-7.91398e-05      12.8512      42.7308 
0.000152972      9.45625      115.428 
-8.00201e-05      10.3577     -74.8905 
-3.96131e-05      9.64494     -51.2281 
9.33084e-05      10.4109     -169.598 
0.000150756      13.2375     -45.0000 
-0.000542350      13.9030      44.2434 
0.000205509      10.2438      27.8152 
2.05010e-05      7.78434      1.91136 
-0.000370663      12.3621      144.946 
-3.97654e-05      7.16679      85.0386 
2.04043e-05      12.7434      44.3010 
2.03454e-05      10.1629     -154.597 
-2.03207e-05      10.4169      161.181 
9.63773e-05      10.6754     -151.707 
5.68495e-05      10.6105     -164.810 
7.36240e-05      9.84156     -17.9915 
7.57200e-05      12.8473      40.0125 
4.00889e-05      10.8156     -64.4785 
-9.47587e-05      10.0443     -82.5655 
-2.02538e-05      5.69963     -10.7211 
-0.000280226      13.5668      136.493 
5.96549e-05      9.92685      174.452 
2.01474e-05      11.9868     -39.7197 
-2.01196e-05      4.78592      115.492 
-9.59193e-05      6.07311      169.945 
2.01013e-05      8.46459     -175.663 
-2.00776e-05      3.07674     -51.8640 
-9.70400e-05      12.6614     -142.314 
-0.000238783      3.57104     -12.9441 
-2.00063e-05      8.67583      26.5673 
-9.48786e-05      6.64977      8.29834 
9.61467e-05      13.3022     -138.350 
-0.000113873      11.5523      29.4490 
2.00098e-05      10.7070     -135.982 
0.000167963      7.29063     -96.7739 
7.60728e-05      10.1905     -154.792 
-0.000115021      9.63045      80.5553 
1.99316e-05      8.95522      161.646 
-5.84834e-05      7.17551     -21.4187 
9.39458e-05      12.1483      33.2435 
3.88913e-05     0.837701     -146.694 
-7.59981e-05      5.72245     -10.8767 
-0.000348870      12.6733     -142.245 
1.97814e-05      9.91278      25.3216 
0.000257229      9.46417      104.566 
-0.000357347      12.1168     -57.3315 
-7.57367e-05      9.60521      21.1140 
9.40606e-05      8.01656      142.504 
7.59145e-05      10.8798     -37.0809 
-5.70612e-05      10.7426     -153.816 
0.000132306      8.79147      108.024 
9.13841e-05      7.46613     -146.137 
5.74660e-05      9.71084     -137.505 
9.29418e-05      8.46614     -175.527 
-0.000274502      10.3773     -74.9197 
-5.74829e-05      9.36438     -120.124 
-3.84575e-05      9.16556     -15.3094 
-7.64639e-05      12.1770     -139.797 
0.000200732      9.65655     -169.016 
0.000108822      9.35600     -153.871 
3.84208e-05      10.2050      88.2050 
-0.000182718      11.2750     -136.510 
-3.87856e-05      10.2164     -41.4298 
0.000181804      11.3063     -125.712 
-1.94987e-05      9.65343      42.6500 
-1.94518e-05      12.8562      128.940 
-1.94310e-05      11.4332     -48.4748 
7.49151e-05      10.6930     -135.910 
-7.48009e-05      8.43422     -153.376 
-1.94450e-05      8.68494      26.3879 
9.37414e-05      10.7973     -64.4322 
-1.93048e-05      10.7490     -113.465 
-0.000234860      10.8580     -49.8553 
-1.92725e-05      9.07648      49.2913 
7.48016e-05      9.90668      174.441 
1.92371e-05      10.0102      172.306 
-9.17883e-05      13.0415      133.881 
3.75703e-05      7.27263      52.3734 
3.78980e-05      5.83260     -64.4042 
-1.92360e-05      7.81329      174.710 
-3.79197e-05      10.2456      94.0318 
-1.91847e-05      12.0333     -52.2933 
-3.66694e-05      12.0388     -43.5857 
1.91668e-05      9.70515     -43.3301 
1.91465e-05      7.86040    -0.289895 
1.91716e-05      10.5373     -44.0017 
3.77473e-05      10.1107     -38.2520 
3.74690e-05      9.94107     -61.7868 
-3.67660e-05      10.0418     -82.6758 
7.44197e-05      7.60192      11.0748 
1.90742e-05      9.31834     -158.337 
-5.52187e-05      12.4603      37.2370 
9.15317e-05      11.5262     -51.9752 
-5.44533e-05      9.05214     -142.904 
-1.89957e-05      7.06470      108.485 
-3.75016e-05      11.0969     -120.309 
-0.000144462      9.52419      85.9067 
5.51068e-05      7.16826     -2.71804 
-5.57413e-05      11.2424      32.1339 
-3.73258e-05      10.4762      139.957 
1.89266e-05      10.9929     -63.0606 
-0.000144495      10.8797     -118.073 
-0.000179288      9.53348     -97.1122 
-7.40966e-05      6.98150     -141.985 
-1.88972e-05      12.8489      37.6021 
-3.70206e-05      11.4186     -48.4099 
0.000180322      5.62727     -131.113 
1.88546e-05      7.91215      101.965 
3.66210e-05      9.01722     -75.7498 
7.15009e-05      11.7034     -125.401 
-3.71618e-05      10.2929     -82.2952 
7.19193e-05      8.93760      117.882 
1.87751e-05      14.1149      134.197 
-3.69546e-05      9.65764      56.1445 
-5.48363e-05      9.87054     -12.4017 
1.87373e-05      7.95521      76.0319 
-7.28548e-05      10.4732      71.6326 
-5.45177e-05      10.6851     -31.6083 
-7.19717e-05      9.83081     -95.8398 
-5.44403e-05      9.79326      84.0229 
1.86624e-05      9.56098      122.096 
-5.45524e-05      9.66204      22.9029 
-0.000213196      9.82093     -3.73691 
0.000178529      11.0018     -62.9701 
-1.86236e-05      8.38848     -126.077 
-8.97078e-05      11.0338     -147.058 
1.85737e-05      9.99016      172.290 
8.96251e-05      9.69767     -137.590 
0.000142852      11.7200     -125.344 
-0.000107898      10.1324      120.612 
-8.88999e-05      9.23647      45.9644 
-8.92259e-05      8.99638      114.286 
1.85013e-05      13.2421     -133.409 
-5.48845e-05      10.2254      94.0398 
0.000142724      12.4901     -136.103 
-7.19670e-05      7.15665     -21.4779 
-7.20965e-05      12.5230      50.7681 
0.000143766      11.3418     -62.9399 
-3.58829e-05      9.15690      96.3941 
7.19893e-05      12.5883      127.253 
7.13465e-05      8.72021     -7.77938 
5.42023e-05      9.02486      26.4500 
-7.16992e-05      8.70309      26.3287 
-1.83751e-05      8.97867      75.6873 
-8.88262e-05      6.93461     -101.308 
-7.22131e-05      12.1587     -139.603 
7.21418e-05      10.7099      49.4697 
-7.13762e-05      8.43614      93.5341 
-7.05565e-05      11.4467     -48.3989 
-0.000142652      10.1288      94.3040 
-1.82962e-05      9.18438     -15.2773 
0.000212402      13.8758     -45.9926 
-1.82849e-05      7.79127      174.845 
1.82526e-05      8.23065      39.1836 
1.82605e-05      10.0069     -87.8255 
-1.82555e-05      12.8842      128.951 
1.82019e-05      11.9842     -39.8561 
8.89243e-05      13.3173     -138.408 
-5.36827e-05      9.56342      157.885 
-8.89437e-05      12.2012      132.610 
-0.000105511      11.1236     -120.345 
0.000175928      12.4717     -145.189 
8.84253e-05      10.6932     -151.759 
1.81333e-05      13.8372      46.7579 
-0.000140811      9.59793      21.0012 
-7.03647e-05      7.53999      43.6048 
5.31297e-05      9.75610     -93.2893 
8.80423e-05      11.2050      61.4217 
3.54461e-05      7.93208     -79.5405 
0.000228445      13.6182      48.6323 
8.74073e-05      9.58462      9.24477 
3.55230e-05      9.15561     -159.940 
-1.81270e-05      12.1616     -139.735 
1.80368e-05      7.28502      52.2472 
-3.58284e-05      8.89978     -169.118 
3.54602e-05      10.4805     -107.776 
0.000122868      8.79752      108.144 
-1.80038e-05      9.15876      171.586 
1.79945e-05      7.65353     -93.4456 
8.85251e-05      9.94824      174.347 
7.05156e-05      9.95066     -61.6840 
-3.54408e-05      9.35461     -120.020 
-7.04131e-05      13.2727     -40.0486 
3.55867e-05      9.57815      122.032 
-3.52074e-05      9.67384      56.2089 
7.01700e-05      9.39985      102.410 
-1.79564e-05      2.39036     -84.7225 
3.53959e-05      8.05254     -75.6206 
-0.000174999      8.81312     -175.052 
3.53419e-05      10.0986     -38.1651 
5.26886e-05      9.40444     -175.854 
5.27997e-05      6.02664     -139.170 
0.000192830      13.7749      45.4723 
1.78931e-05      9.08356      43.2158 
-7.01557e-05      6.96554     -141.882 
-1.79219e-05      10.3247      74.7244 
-0.000210261      12.1059     -57.4122 
-8.73803e-05      10.2052      94.0478 
-3.51675e-05      10.4892      139.872 
7.00927e-05      13.8239      46.8168 
-7.01657e-05      12.2645     -33.5588 
-5.26726e-05      6.57684      115.007 
-3.50448e-05      5.74619     -11.0370 
-3.52022e-05      9.14068     -15.2205 
-6.97605e-05      9.74494     -175.880 
-3.50458e-05      2.48390      103.024 
-1.77602e-05      9.08809     -71.5247 
-3.50096e-05      4.76764      115.597 
1.76849e-05      10.4558     -63.2897 
-1.76846e-05      7.14660      85.0245 
1.76921e-05      9.44554      26.9457 
5.22776e-05      9.70273     -70.7453 
3.50077e-05      10.2179     -154.989 
-3.50561e-05      6.05390      169.913 
5.24314e-05      8.01287      142.301 
-1.76322e-05      10.4021     -74.8409 
5.22288e-05      6.15403      93.9154 
3.50113e-05      10.3579      171.337 
-3.48400e-05      12.3058     -42.0366 
-6.97963e-05      12.6573     -142.188 
6.95735e-05      11.3595     -63.8869 
-3.48188e-05      9.62714      80.6742 
1.75634e-05      6.58493     -126.105 
1.75630e-05      7.73200      110.123 
-1.75538e-05      4.45975     -109.654 
1.75218e-05      9.06582      111.756 
-1.74773e-05      12.6453     -142.258 
-5.22389e-05      12.1461     -139.673 
-3.47486e-05      8.88063     -169.095 
1.75294e-05      7.91622      102.103 
3.48011e-05      10.7247      49.5374 
1.75095e-05      12.1425      33.3758 
-1.74738e-05      12.4480      37.1628 
3.46720e-05      3.64535     -163.755 
5.20603e-05      10.8695     -19.9023 
-3.47412e-05      13.7998      132.710 
1.74368e-05      10.7886     -64.5293 
3.45401e-05      10.8960     -37.0167 
1.74375e-05      10.6052     -164.916 
-3.46167e-05      13.1788     -39.1489 
-1.74085e-05      10.2179      39.3616 
3.46257e-05      11.0120      68.1406 
-5.14652e-05      8.41611     -153.314 
1.73988e-05      8.92688      63.9519 
-1.73726e-05      9.68002      22.8580 
-3.45283e-05      10.0967      122.872 
3.45788e-05      11.5221     -152.500 
-3.44809e-05      9.58219      157.930 
-3.45500e-05      10.5598     -75.8591 
1.73233e-05      7.67375     -93.4365 
1.73204e-05      6.76027     -89.8283 
1.73297e-05      9.84112     -89.0694 
1.73269e-05      6.82053     0.504296 
-3.44755e-05      12.5883     -142.747 
1.73019e-05      7.29304     -96.9320 
5.17372e-05      11.3329     -63.0278 
1.73020e-05      13.0161     -46.6188 
-1.72997e-05      8.26350      120.228 
1.72939e-05      11.5382     -51.8989 
-3.45816e-05      10.4261     -74.7655 
1.73100e-05      13.2513     -44.9404 
-1.73062e-05      10.1224      120.517 
-1.72760e-05      7.43232     -126.684 
5.16693e-05      13.7889      45.5292 
1.72349e-05      9.92883      174.336 
1.72611e-05      9.05914      110.957 
3.44577e-05      12.8842     -127.368 
-1.72476e-05      10.0217     -82.6611 
1.72131e-05      11.7590      59.7730 
-1.72007e-05      12.2145      132.677 
1.72123e-05      8.93579      63.8352 
-1.72021e-05      9.58507      33.4238 
-1.71838e-05      13.1783      139.494 
0.000182127      8.20207      139.746 
1.71863e-05      11.7669     -32.7192 
-1.71764e-05      13.7861      132.649 
1.71546e-05      11.5542     -51.9609 
-1.71458e-05      8.89063     -116.448 
-1.71677e-05      10.5686      139.527 
-3.41957e-05      3.47882      162.605 
-1.71262e-05      8.72058      26.2718 
1.71385e-05      7.92842     -79.6845 
-1.71460e-05      9.22137     -54.0011 
-5.84518e-05      12.8380     -130.513 
-5.73809e-05      12.8358     -130.640 
0.000111854      10.9573      155.868 
-1.92889e-05      10.7933     -113.476 
-7.25053e-05      7.27182     -101.741 
5.53381e-05      10.0481     -87.7188 
1.89195e-05      9.44437     -37.4262 
8.87432e-05      11.2947      41.3395 
5.41958e-05      7.88319      4.36733 
-0.000123575      10.8014     -113.575 
-7.15338e-05      11.1068     -120.395 
8.78002e-05      13.7752      134.413 
5.33081e-05      9.32209     -79.9918 
5.29053e-05      12.6157      44.2288 
7.06830e-05      9.98017      179.884 
7.04054e-05      7.55315      8.99068 
0.000105569      9.47217     -37.4518 
-3.53775e-05      12.8226     -130.571 
-7.02080e-05      13.0301      48.1116 
-1.82027e-05      12.3193     -42.1065 
8.74100e-05      11.6424      151.585 
-3.57349e-05      7.35658      55.1866 
3.55671e-05      12.0257     -39.1958 
1.80411e-05      11.7125      50.0577 
-6.96652e-05      13.6243      136.605 
1.80002e-05      10.3750     -155.758 
-5.26009e-05      6.93756     -141.905 
-6.95834e-05      12.3049     -42.1675 
-5.25278e-05      11.2580      142.071 
1.77457e-05      10.4956     -43.9195 
-3.49523e-05      9.18093      171.483 
1.76989e-05      7.74409      109.931 
3.43951e-05      12.5798      131.649 
5.23672e-05      5.27585      139.309 
6.93233e-05      10.3566     -155.712 
-3.45419e-05      9.17480      169.448 
3.45113e-05      11.6496      120.088 
1.75154e-05      10.2412      6.28039 
3.41670e-05      11.7281      50.1212 
3.45020e-05      8.72264     -62.2578 
-3.41833e-05      11.4996      43.9451 
3.41037e-05      3.77875     -81.7798 
3.41400e-05      9.33678      121.509 
3.42694e-05      8.24663     -116.502 
1.76034e-05      7.29698      52.1260 
3.47755e-05      10.0271     -87.8299 
3.43252e-05      8.73550     -160.609 
-1.73792e-05      5.55663     -35.9182 
-1.72177e-05      8.95577     -72.0509 
-1.71986e-05      10.0166     -82.8910 
1.71978e-05      6.59645     -126.242 
1.71749e-05      9.71189     -101.404 
3.39380e-05      7.30944      52.0007 
-1.71759e-05      12.5194     -43.6400 
1.71175e-05      7.99390      142.011 
1.70089e-05      10.4810     -43.9963 
-1.69995e-05      10.9689      47.2899 
-1.69638e-05      5.78523     -10.9616 
-1.69545e-05      5.28883     -109.666 
1.69144e-05      2.89224      150.602 
-1.68553e-05      9.47983     -90.3628 
-1.68132e-05      8.43627     -64.5906 
1.68141e-05      5.20884      139.827 
1.67496e-05      9.05493      43.2102 
1.67073e-05      8.58832     -92.5339 
1.67214e-05      10.4295      112.434 
1.67016e-05      11.0554     -25.9633 
! Tentative model.
! Flux (Jy) Radius (mas)  Theta (deg)  Major FWHM (mas)  Axial ratio   Phi (deg) T \
! Freq (Hz)     SpecIndex
-1.72482e-05      6.96566     -141.880 
