! Center RA: 12 21 31.69052,  Dec: +28 13 58.50011 (2000.0)
! Established model.
! Flux (Jy) Radius (mas)  Theta (deg)  Major FWHM (mas)  Axial ratio   Phi (deg) T \
! Freq (Hz)     SpecIndex
  0.134880    0.0202604      180.000 
 0.0721705    0.0286526      135.000 
 0.0281136    0.0202604      90.0000 
 0.0116414     0.262662      98.7088 
0.00882000     0.260423      94.4620 
 0.0116642     0.243395      99.4042 
 0.0123830    0.0446338      116.996 
0.000662544    0.0633577      108.650 
0.00428229     0.223431      100.253 
0.000468699     0.282706      98.0871 
0.000459114     0.340529      93.4109 
0.00519280     0.204262      101.227 
0.00133876     0.360755      93.2195 
0.00801863     0.184432      102.453 
0.00297527     0.322129      97.0919 
0.00113924     0.342244      96.6731 
0.00322865     0.362375      96.3009 
0.00342873     0.164706      103.973 
0.00105383     0.141777      98.2159 
0.00102573    0.0397705      90.0000 
0.00248257     0.381773      95.9795 
0.00231168     0.401929      95.6787 
0.00397793      0.00000      0.00000 
0.00380813     0.422095      95.4065 
0.00848943    0.0202604     -90.0000 
0.00616872     0.441522      95.1680 
0.00341005     0.461703      94.9415 
0.00506414     0.463888      97.4354 
 0.0151967    0.0397705     -90.0000 
0.000637583     0.627803      99.1471 
0.00317526     0.647814      98.8622 
0.00361405     0.651243      100.624 
0.00266343     0.152624      113.162 
0.000923337     0.885104      108.435 
0.00185613     0.671167      100.305 
0.00224542     0.904347      108.029 
0.00183003     0.898283      106.800 
0.000394417     0.420705      92.7603 
0.000582449     0.466942      99.9013 
0.000556819     0.399956      90.0000 
0.000541892     0.490508      101.740 
0.00103701     0.840993      107.982 
0.000524670     0.923634      107.640 
0.000705589     0.470689      102.241 
0.000356075     0.917698      106.434 
0.000338018     0.380236      86.9456 
0.00270686     0.821746      108.418 
0.000833578     0.400469      87.1001 
0.000173267     0.690371      100.015 
0.000985264     0.942245      107.281 
0.000641536     0.134233      116.565 
0.000611621     0.667840      98.5944 
0.00110464     0.475398      104.628 
0.00148132     0.961610      106.922 
0.00142612     0.401929      84.3213 
0.000673186     0.797167      107.531 
0.000892050    0.0600310     -90.0000 
0.000297425     0.495028      104.036 
0.000296998     0.116465      121.027 
0.00146612     0.480914      106.965 
0.000938828     0.113549      135.000 
0.00225355    0.0633577     -71.3505 
0.00130857     0.981011      106.578 
0.00152615     0.404436      81.4640 
0.000127925     0.665204      96.9326 
0.00152567    0.0828082     -75.8378 
0.000979345     0.815792      107.118 
0.000924531     0.467874      109.975 
0.000360819     0.100252      143.216 
0.000242023     0.999726      106.258 
0.00164081      1.00559      107.367 
0.000118694     0.645096      97.1498 
0.000861706     0.116465      148.973 
0.000329331     0.642889      95.3579 
0.00307799     0.101837     -78.5245 
0.000809615     0.457182      113.199 
0.00130661     0.407936      78.6487 
0.000941736     0.835176      106.709 
0.000199578     0.641314      93.5554 
0.00145960      1.03082      108.066 
0.000194313     0.107434      158.273 
9.76350e-05     0.427819      79.1828 
0.000188908     0.640401      91.8130 
0.000716527     0.447333      116.608 
0.000615517     0.126477      161.673 
9.07978e-05     0.660341      90.0000 
0.000175039     0.660651      88.2426 
0.000172842     0.661537      86.5534 
0.00120451     0.438758      120.073 
0.000863862     0.431906      76.6398 
0.000413389     0.663064      84.8056 
0.00135890      1.03728      109.130 
0.000596604     0.121759     -80.4216 
0.000391308     0.665204      83.0674 
7.95450e-05     0.141777      171.784 
0.000438532     0.161111      172.776 
0.000445232     0.687137      81.6487 
0.000361662     0.432889      123.690 
0.000141642     0.667840      81.4056 
7.02329e-05     0.412220      75.9891 
0.000299901     0.565518      98.1624 
0.000196626     0.546212      98.4529 
0.000192625     0.172194      144.578 
0.000189496     0.583147      95.9087 
0.000188469     0.161670      150.222 
9.27935e-05     0.134233      153.435 
9.21870e-05     0.362375      83.6991 
0.000359642     0.803259      108.858 
9.09933e-05     0.216445      123.690 
9.07141e-05     0.620151      91.8722 
8.97519e-05     0.384412      81.0157 
0.000259059     0.152624      156.838 
0.000421657    0.0446338     -63.0042 
0.000168591     0.986983      107.705 
0.000482573      1.01158      108.422 
8.26320e-05     0.465536      115.491 
0.000229419     0.164706      166.027 
7.95746e-05     0.456404      118.798 
0.000304819     0.455823      74.7283 
7.85363e-05     0.684575      83.2645 
0.000226485     0.828371      109.748 
0.000448136      1.01816      109.503 
0.000434009     0.449253      122.310 
0.000554932    0.0720098     -56.4755 
0.000141599     0.690371      79.9848 
0.000206571     0.480914      73.0353 
0.000205556     0.710331      80.2690 
0.000788337      1.04410      110.180 
6.94271e-05     0.817257      111.547 
0.000512921     0.444008      125.785 
0.000193039     0.824622      112.808 
6.63308e-05     0.181229      173.581 
0.00129583    0.0896014     -63.6495 
6.56837e-05     0.730308      80.5377 
0.000367268     0.461573      72.3015 
0.000125589     0.714035      78.6665 
0.000123846     0.180093      180.000 
6.32051e-05     0.769565      81.0245 
6.28774e-05     0.459977      124.364 
6.24705e-05     0.694181      78.3378 
0.000679148      1.05099      111.178 
6.04451e-05     0.788842      81.2456 
6.02246e-05     0.814232      114.676 
5.97514e-05     0.427737      127.372 
5.93288e-05     0.808873      81.4640 
5.86513e-05     0.832685      114.094 
0.000274278     0.698386      76.7701 
5.80560e-05     0.396866      130.860 
0.000113178     0.828914      81.6718 
0.000219989     0.822896      115.958 
0.000164161     0.381773      132.849 
0.000111670     0.456152      127.850 
5.62341e-05     0.200353      180.000 
0.000163766     0.443026      71.5344 
0.000159192     0.848223      81.8627 
0.000203587     0.201375     -174.226 
5.36224e-05     0.471709      126.396 
5.22004e-05     0.467874      70.0247 
0.000347330      1.05848      112.201 
0.000151014     0.488166      124.985 
0.000799490     0.107434     -68.2729 
5.14546e-05      1.04080      92.1899 
0.000101064     0.814312      117.793 
0.000465085     0.449587      69.1753 
0.000415238     0.381773      137.151 
5.02560e-05     0.868284      82.0520 
0.000193938      1.06049      91.0947 
0.000514844     0.703300      75.1631 
0.000230035     0.823954      119.039 
0.000136640     0.871317      80.7324 
0.000135251     0.500058      126.887 
0.000137634      1.07726      111.794 
0.000220993      1.07981      90.0000 
4.55187e-05     0.220795     -174.735 
0.000377119      1.06630      113.209 
0.000164116     0.223431     -169.747 
0.000275212     0.816540      120.973 
0.000232995     0.368782      139.373 
0.000850132     0.116465     -58.9729 
0.000171508     0.512006      128.634 
0.000312264      1.10025      88.9449 
8.06830e-05     0.891319      80.9421 
0.000470872     0.457182      66.8014 
0.000327173      1.08495      112.788 
0.000465833      2.34740      103.796 
7.07320e-05     0.894598      79.7080 
0.000239605     0.243395     -170.596 
4.20161e-05     0.527985      127.261 
0.000504562      1.65745      109.739 
3.60169e-05      1.10079      87.9295 
0.000669252     0.708758      73.5796 
0.000165104     0.809664      122.895 
0.000100409     0.524894      130.361 
0.000357124      1.12103      87.9669 
0.000404615     0.728215      74.0303 
0.000101326     0.540492      128.970 
9.94606e-05     0.826750      122.132 
0.000287515     0.384386      141.340 
0.000259058      1.63839      109.979 
0.00227269      2.32846      103.911 
0.000505784      1.09265      113.731 
3.24165e-05     0.234065      20.0616 
3.20141e-05     0.910591      81.1354 
0.000151816     0.247514     -165.964 
6.27532e-05     0.260038      22.5690 
0.000148888     0.553458      130.601 
0.000229885     0.134233     -63.4349 
0.000118383      1.46767      109.908 
6.02861e-05     0.278155      21.0264 
2.99960e-05     0.465536      64.5089 
0.000297240     0.820844      124.082 
0.000169049     0.304558      23.2171 
2.92480e-05     0.804760      124.861 
2.91631e-05      1.12193      86.9328 
0.000483882      1.70255      93.3605 
0.000603043      1.14142      86.9852 
0.000460214     0.266484     -166.981 
2.76367e-05     0.538237      132.005 
2.75206e-05      1.47469      110.648 
0.000104165     0.566349      132.100 
0.000296902      1.72176      92.6729 
0.000127037      1.49367      110.374 
0.000178150     0.331336      25.0561 
0.000101524      1.67653      109.505 
0.000410242     0.145849     -74.1761 
2.54719e-05     0.882975      76.8849 
2.50509e-05      3.22016      90.7076 
0.000794288      3.24042      90.7032 
4.80641e-05     0.580127      133.585 
7.21020e-05     0.837701      123.306 
0.000135468      1.69493      109.285 
4.71397e-05     0.551483      133.511 
0.000114786     0.357396      26.5651 
6.68302e-05     0.867991      75.3270 
8.67030e-05      1.51906      110.834 
0.000143781     0.690066      73.1217 
0.000111979     0.854707      122.560 
8.82316e-05     0.565624      135.000 
6.67310e-05      1.50084      111.099 
2.28029e-05     0.493986      68.6188 
0.000129285      3.37998      90.6742 
0.000186361      1.11054      113.326 
0.000123785     0.375627      25.1828 
8.69046e-05      1.10096      114.696 
2.13602e-05     0.512905      69.4440 
0.000182009     0.871214      121.869 
2.09671e-05     0.594276      135.000 
0.000256353     0.580127      136.415 
0.000753678      4.23499      104.499 
0.000234334      1.71407      109.062 
0.000118785      3.26947      113.423 
0.000334589      3.40024      90.6702 
0.000117609      1.70152      92.7047 
4.02861e-05     0.404832     -32.8948 
2.01622e-05     0.832367      125.237 
0.000114759     0.271765     -162.816 
9.58288e-05      1.16287      86.0408 
9.22897e-05      1.52611      111.519 
0.000127540     0.796200      128.879 
4.87375e-05     0.607364      72.7515 
0.000112876     0.399806     -36.9129 
5.13604e-05     0.888484      121.180 
0.000238654     0.164706     -76.0271 
1.89485e-05      3.16651      115.429 
0.000533945      1.72093      91.9990 
0.000121370     0.402700      26.5651 
1.87150e-05      3.28807      113.283 
6.08605e-05     0.905232      120.540 
0.000233016      1.16165      87.0378 
8.90775e-05      3.15771      115.914 
0.000234821      1.12917      112.919 
1.84734e-05     0.550320      70.8980 
8.81211e-05      3.29838      112.837 
0.000137818     0.291183     -163.994 
7.78339e-05     0.915694      121.632 
0.000236715     0.416183     -35.2375 
1.73992e-05     0.933005      120.980 
1.73851e-05     0.569504      71.5651 
6.08445e-05     0.771858      73.4501 
0.000248981      2.59391      107.041 
9.59620e-05      3.14845      116.406 
0.000203313      3.42050      90.6662 
1.66657e-05     0.588045      72.1662 
0.000108377      3.31706      112.702 
0.000189876     0.794223      130.901 
0.000213596      3.02206      104.951 
0.000116293      1.55243      111.940 
0.000188188     0.297155     -160.375 
5.76334e-05     0.387976      145.480 
0.000258860      4.21538      104.568 
4.16464e-05     0.626742      73.3008 
0.000111750      2.58037      107.587 
3.08292e-05     0.566349      137.900 
0.000141595     0.753177      73.0274 
0.000171877     0.899141      122.284 
0.000137333     0.412159      29.0850 
3.02840e-05      1.73323      108.843 
0.000125163      3.13910      116.890 
0.000169763     0.580972      139.190 
8.36548e-05      1.18309      86.1086 
0.000238135      1.74557      108.030 
0.000318449      3.42032      90.3394 
0.000238738      4.60604      113.006 
0.000193552      3.33576      112.567 
5.12551e-05     0.960569      87.6271 
2.79120e-05      1.14786      112.525 
0.000150799     0.421988     -31.4006 
2.70222e-05      2.56802      108.149 
0.000386636      4.01202      104.725 
0.000729092      5.61738      94.4897 
3.66113e-05      3.99765      105.080 
0.000154060      1.74060      91.3092 
4.75463e-05      2.57440      108.578 
0.000120089      1.18188      87.0885 
0.000491736     0.304558     -156.783 
8.65208e-05      2.86567      119.250 
0.000392539      3.25974      90.3561 
0.000115446      2.56153      109.136 
0.000181889      3.13097      117.382 
0.000107421     0.181229     -83.5812 
3.03129e-05     0.399806      143.087 
0.000184251      2.72134      88.3093 
0.000124095     0.809071      129.996 
0.000124979     0.645453      73.7984 
0.000305666      2.10187      92.1892 
9.31830e-05      1.56011      112.630 
0.000148391      2.85765      119.790 
0.000192046      3.35378      112.439 
1.14975e-05      3.56506      111.380 
5.69007e-05     0.438496      136.803 
0.000129582     0.429314      27.8192 
0.000113958     0.596454      140.462 
0.000169925      3.57690      110.971 
0.000129769     0.438758     -30.0730 
0.000129299     0.424884      138.795 
0.000308024      3.43983      90.3375 
4.16853e-05      3.28000      90.3539 
2.00046e-05     0.940453      88.7656 
0.000168323      2.54080      115.150 
2.86428e-05     0.452074      135.000 
0.000136474      1.20255      86.1717 
0.000180707      1.77740      107.012 
0.000376249      4.91411      108.510 
0.000141088      4.61370      113.229 
0.000202800     0.882079      122.987 
0.000299453     0.664933      74.2855 
0.000285138      2.34282      103.333 
0.000215622      1.59296      82.7746 
0.000176347      2.74148      87.9137 
0.000183997      3.12242      117.883 
6.35374e-05     0.865779      123.690 
0.000121060      2.86777      120.141 
4.40616e-05     0.600310      143.130 
4.92721e-05      1.53091      96.7558 
8.05382e-05      1.57883      112.348 
7.30791e-05     0.184432     -77.5470 
0.000314616      2.53122      115.760 
0.000155644     0.447333     -26.6080 
0.000213228      5.59881      94.7126 
9.71898e-05      1.18103      88.0702 
1.64342e-05     0.612215      141.669 
1.55073e-05     0.940235      90.0000 
5.47671e-05      3.36128      112.747 
0.000104119     0.616029      144.219 
1.56548e-05     0.466621      133.241 
0.000139578      3.46003      90.0000 
0.000295353      3.74292      113.965 
2.18546e-05      2.72198      87.8988 
1.49910e-05      5.92843      93.0909 
0.000387237      4.25461      104.431 
8.18449e-05      3.37252      112.308 
0.000176573      5.92741      92.9026 
0.000113615      1.79102      106.203 
7.26444e-06     0.509625      131.837 
7.13468e-06      1.00495      121.162 
0.000182276     0.201375     -84.2257 
2.05694e-05      1.56772      113.289 
5.19736e-05      4.62173      113.460 
7.01737e-06      1.11872      114.279 
0.000111965      3.00321      105.047 
0.000103993      3.37997      112.614 
0.000117138      2.86056      120.696 
3.75755e-05      1.28036      118.953 
0.000165137      2.74229      87.4907 
2.35718e-05      1.54807      95.9261 
6.80127e-06     0.496341      130.094 
3.27393e-05     0.331336     -154.944 
1.88316e-05     0.920834      92.4754 
6.53475e-06      3.56970      110.667 
0.000160215      1.58635      112.999 
5.97280e-05      2.33823      102.850 
0.000142128      4.90771      108.285 
9.62948e-05      1.18053      89.0166 
1.25608e-05      3.13159      118.198 
0.000177556     0.621223      75.0909 
0.000342234     0.323277     -158.199 
0.000153659      3.48029      90.0000 
0.000271932      3.12343      118.702 
6.72014e-05     0.475177     -22.2719 
0.000134623     0.411820      140.916 
3.48908e-05      2.12069      91.6221 
0.000113011      4.60384      113.557 
5.91185e-05     0.632576      145.292 
0.000111865      5.58107      94.9364 
2.21807e-05      2.35799      102.740 
9.56257e-05      3.00245      87.7082 
0.000179614      5.94665      92.6978 
1.62724e-05     0.921931      93.7334 
2.71376e-05     0.807634      131.987 
2.98111e-05      1.29029      119.741 
0.000106439      2.12136      92.1691 
0.000257706      2.52259      116.367 
3.98640e-05      1.80520      105.428 
3.07073e-05     0.792690      132.967 
9.20125e-05      3.27994      90.0000 
6.74993e-05      5.64119      91.2195 
0.000151900      3.80471      102.137 
5.07827e-06      1.12320      94.0993 
9.02772e-05     0.486965     -19.1609 
0.000106956      4.92089      107.996 
4.93216e-06     0.923472      94.9879 
3.34654e-05      1.52866      96.0016 
9.21380e-05      3.49980      90.0000 
0.000167152      2.87057      121.031 
9.37154e-06     0.907689      97.6009 
7.72908e-05      5.56260      95.1545 
2.62397e-05     0.638318      147.823 
0.000120492      1.82402      105.265 
2.71065e-05      2.99821      104.687 
3.23020e-05     0.910591      98.8646 
5.67830e-05      5.15514      111.385 
0.000159218      5.62093      91.2239 
0.000105867      5.13628      111.467 
8.33768e-06     0.532403      124.317 
3.60583e-05      3.00333      87.3220 
1.19251e-05      1.28304      120.975 
8.11728e-05      1.59554      82.0795 
5.92492e-05      5.96689      92.6886 
2.94917e-05     0.644631      150.272 
4.51402e-05      3.52012      89.6702 
6.83111e-05      4.92713      107.477 
7.35847e-05      5.54429      95.3819 
2.57853e-05      3.12573      119.513 
6.41151e-05      3.02357      87.3400 
-0.000346448      1.90888      112.805 
1.74343e-05     0.500328     -16.2877 
1.92942e-05      1.54617      95.2070 
-0.000199044      1.43373      67.0180 
-0.000313341      3.02283      112.153 
3.53507e-06      2.29135      106.221 
2.70123e-05      3.54038      89.6721 
1.38162e-05      2.27770      106.853 
1.01011e-05      4.58527      113.658 
9.96584e-06      5.96598      92.4942 
9.98786e-06      1.59438      113.670 
2.30220e-05      2.26481      107.468 
3.33951e-06     0.898439      101.563 
3.88106e-05      4.00297      105.360 
5.50470e-05      1.60433      112.727 
4.12205e-05     0.519084     -15.6837 
1.51996e-05      2.14095      91.6068 
4.35997e-05      4.59578      113.325 
0.000112191      1.81049      106.024 
5.82437e-05      5.98547      92.4861 
2.29127e-05     0.902718      102.823 
6.29781e-06      2.35361      102.259 
6.77140e-05      3.58032      89.3635 
2.07277e-05     0.653108      152.640 
3.97890e-05      2.25171      108.115 
0.000106915      5.52681      95.6100 
1.78551e-05      1.22602      84.3801 
3.09426e-06      1.04313      122.455 
2.83683e-05      3.25968      90.0000 
5.24717e-05      1.57042      83.4149 
1.15591e-05      2.36938      101.694 
3.32594e-05      3.75089      114.237 
1.66418e-05     0.456404      28.7984 
2.98864e-06      1.09157      118.450 
2.76389e-05     0.416183      144.763 
1.68979e-05      4.94066      107.191 
4.46886e-05      2.23890      108.769 
1.36943e-05      1.10943      117.952 
4.86284e-05      3.11375      118.375 
-8.04706e-05      5.66062      96.8980 
1.60709e-05      1.24756      83.5418 
2.80457e-06      1.62304      112.451 
1.86919e-05      5.60142      91.2282 
2.79038e-06      2.98365      105.148 
3.46459e-05      1.61227      113.391 
3.45094e-05      3.04305      87.3570 
1.07609e-05      5.90151      91.1657 
3.18241e-05      2.98901      105.523 
1.06005e-05      2.38449      101.123 
1.84434e-05      2.53132      116.763 
2.69162e-06     0.777987      136.016 
5.26768e-06      2.14047      91.0646 
2.08195e-05      2.22684      109.406 
1.03740e-05      3.98867      105.707 
5.24663e-06      4.93471      106.966 
2.62347e-06     0.764056      137.109 
-1.54690e-05      1.63839      70.0214 
-1.54865e-05      3.58950      94.1479 
7.73716e-06      6.00490      92.2918 
1.27998e-05      5.51069      96.0421 
-1.02245e-05      2.76173      92.0710 
2.54029e-06      4.94824      106.673 
2.54094e-06      6.00571      92.4777 
-0.000656080      11.0325      46.0279 
-0.000638590      8.76462     -68.5885 
0.000595255      10.2140     -171.440 
-0.000427151      11.5205     -36.6714 
0.000175957      8.87082     -97.2555 
-0.000498242      7.58237      94.3874 
0.000136385      9.72286      137.252 
-4.65808e-05      1.82925      15.8550 
0.000248033      7.37966      158.371 
-0.000315212      1.80520      15.4285 
-0.000405142      9.97176      85.3989 
0.000334553      7.28144      162.908 
-0.000380022      9.99670     -122.832 
0.000120493      9.73775      137.333 
-0.000155018      9.09508     -173.686 
-0.000254297      11.0044      46.0333 
0.000218078      5.68558     -18.2436 
0.000270665      10.4946     -38.9663 
-0.000113187      9.10873      177.483 
-0.000240587      10.0558      27.7372 
-7.69812e-05      10.1433     -7.36160 
0.000178471      7.97507     -106.160 
-3.78406e-05      12.0861     -147.912 
-0.000166736      8.95537      48.6212 
0.000137814      7.34127      41.2454 
0.000324517      6.52960     -153.040 
-7.18638e-05      4.50852     -53.8415 
-0.000229015      12.8725     -51.6871 
-3.70971e-05      3.94211     -88.2547 
0.000358461      5.68178     -147.655 
0.000261433      11.7577      35.0969 
0.000263853      7.82332     -71.5181 
7.23082e-05      3.82961     -106.073 
0.000141819      11.7751     -59.2510 
-6.88611e-05      11.0036      48.0212 
-0.000194642      10.2075     -25.4103 
0.000101430      12.7519     -126.583 
-0.000189790      12.0429     -145.967 
0.000100042      12.3252     -132.962 
0.000103090      9.71837      56.2461 
0.000228412      10.5786     -123.121 
-3.49130e-05      9.99196      85.4082 
6.73755e-05      8.91349     -97.3470 
-0.000247812      7.52525     -114.999 
-0.000185470      9.12897      177.489 
-9.50940e-05      11.5084     -36.5905 
9.77548e-05      11.6413     -133.955 
0.000275760      9.06499      169.063 
-9.47062e-05      3.92253     -87.9499 
-9.26865e-05      12.7995     -42.2152 
-0.000183272      8.86869      66.6149 
0.000187611      6.36706      81.6923 
0.000184162      11.7584     -59.2024 
9.17311e-05      3.82405     -105.782 
-0.000150338      10.9657      41.5990 
0.000180105      1.61419     -56.1253 
-9.31790e-05      1.54096     -2.23262 
9.16615e-05      10.4864      113.731 
3.18465e-05      9.69069      56.2755 
0.000119627      10.4390      115.779 
0.000116853      9.89171      30.7655 
5.92693e-05      2.20762      162.064 
8.80154e-05      9.58660     -101.921 
-3.07332e-05      6.24612     -173.010 
-8.85960e-05      5.85957     -83.3373 
-8.74755e-05      10.9898      45.9600 
-5.75014e-05      2.50830     -85.4186 
-5.74438e-05      4.52006     -53.6418 
-5.87547e-05      10.1770      75.6646 
-5.79871e-05      9.24879      69.0947 
5.82304e-05      9.70755      56.3419 
-0.000114105      11.1352     -48.3491 
5.74859e-05      7.55210      15.9876 
2.94222e-05      8.95554     -97.4430 
8.55320e-05      10.5623     -123.179 
5.73238e-05      11.6272     -133.883 
-5.69528e-05      9.75927     -150.810 
-5.70021e-05      10.1507     -67.5261 
-8.44322e-05      6.61096     -82.8734 
-5.62036e-05      8.77640     -68.7553 
-5.69069e-05      1.54031     -1.47953 
-5.68003e-05      7.27155      59.4124 
2.85385e-05      4.98220      153.022 
5.61090e-05      6.38637      81.7176 
-2.83247e-05      7.48858      127.513 
-2.77565e-05      9.71556      6.14520 
2.76786e-05      8.99479     -45.0000 
2.76006e-05      8.97563     -97.4262 
-2.76177e-05     0.715464     -153.462 
-2.75826e-05      10.1966      75.6928 
-2.73184e-05      4.14321      30.7733 
2.72674e-05      2.69211      26.9507 
-0.000456326      8.01523      129.332 
-0.000292051      6.18891     -171.451 
0.000353715      9.64936     -101.961 
6.46169e-05      9.62625     -101.871 
-6.21728e-05      10.8832     -67.2999 
0.000230206      10.0674     -54.5413 
0.000377855      9.77865      72.3784 
-0.000130678      10.8911     -67.2016 
-0.000107440      7.81048      73.7937 
0.000197421      9.64854     -57.5298 
-0.000245020      10.5154     -156.459 
-0.000151314      12.0035     -42.5679 
-0.000219479      10.8047      134.851 
-7.91015e-05      4.37128      83.1678 
2.77733e-05      4.85733      167.392 
-0.000152825      3.82140     -163.270 
0.000423615      10.1816      5.18411 
7.87921e-05      6.63663      157.686 
2.71772e-05      5.64567      31.3830 
0.000189909      8.27873     -5.54472 
5.03561e-05      10.0787     -54.4509 
5.15372e-05      5.77467      34.1320 
0.000205115      9.36578     -91.9559 
-2.59348e-05      8.41620      53.2098 
-0.000327287      4.30519      24.4208 
0.000211977      6.62633      157.460 
4.96488e-05      6.12315      151.089 
-4.77606e-05      6.96253     -61.5236 
-2.52790e-05      8.43243      53.2922 
0.000218918      7.37894      116.216 
-0.000151928      4.76398      15.0826 
4.82324e-05      7.60244      18.2454 
-0.000112446      8.44847      55.7101 
-8.23433e-05      3.43186     -139.256 
-0.000106954      8.44411      53.1861 
8.77222e-05      5.80239      34.1792 
8.40468e-05      8.52352      139.281 
0.000160951      9.32735      132.653 
4.50882e-05      11.6308     -133.188 
0.000121026      1.61974     -57.0830 
2.30763e-05      10.3195     -82.8740 
8.44777e-05      6.11338      151.255 
-4.37101e-05      6.52972      170.481 
0.000470677      10.3170     -82.9856 
-7.32365e-05      10.7849      47.2557 
-9.52439e-05      3.84663     -13.5266 
-0.000295264      8.71019     -99.1158 
-0.000146509      12.0769      57.0999 
0.000127550      8.32260      140.264 
-8.09562e-05      11.1227     -42.9578 
-6.03530e-05      9.14841      14.4295 
2.11450e-05      8.71190      113.978 
-2.10938e-05      12.1132      54.8135 
9.13656e-05      11.6022     -133.184 
2.07448e-05      7.62097      18.1995 
5.80169e-05      10.8602      114.015 
-0.000293300      9.93991      121.003 
-3.96935e-05      12.0023     -42.7045 
-8.27658e-05      7.80506      73.9313 
-2.01975e-05      4.37374      82.9042 
-8.99912e-05      6.94465     -133.949 
0.000245982      11.4467      41.6011 
-0.000143925      1.52080     -1.49851 
-3.88845e-05      10.7700      47.1825 
3.82963e-05      9.65417     -57.6934 
5.53586e-05      10.2358     -58.4225 
-1.96347e-05      8.75836     -50.9323 
7.08330e-05      7.60904     -109.339 
-0.000112932      11.2434     -44.4944 
8.45648e-05      5.81854      34.0713 
-3.81119e-05      8.43749      55.8195 
-1.93480e-05      10.0745     -113.768 
-1.93370e-05      10.6212     -109.698 
0.000114185      9.98161     -145.035 
-1.92078e-05      8.08855     -32.7863 
-0.000168930      4.70558     -68.5617 
3.71992e-05      9.05850     -176.329 
-3.64660e-05      11.8832     -46.4994 
5.32607e-05      6.95951     -6.10278 
1.88783e-05      7.64022      18.1520 
7.53849e-05      3.63863      146.661 
-1.86040e-05      8.02761      129.439 
-8.54152e-05      8.83781     -64.2486 
-5.25868e-05      10.8191      134.775 
-5.21556e-05      6.52652      170.650 
5.20850e-05      8.29697     -5.39194 
9.78300e-05      6.13115      151.346 
1.83112e-05      1.99283      169.587 
-5.03167e-05      10.5073     -156.560 
0.000159510      4.27230      159.445 
0.000142749      8.03282     -25.6746 
-0.000149094      8.08253     -32.9848 
-6.81745e-05      10.0220     -160.045 
-0.000121829      6.99108      10.2135 
-1.78405e-05      6.91706     -133.945 
-4.98650e-05      8.40935      55.8562 
3.51188e-05      7.65110      44.4715 
6.75353e-05      6.74558     -44.8783 
0.000329874      6.57587      53.4073 
1.76758e-05      7.67802      18.0595 
9.82235e-05      4.64804     -143.574 
4.90223e-05      9.27155      121.322 
-4.89137e-05      1.99259      58.5367 
0.000103875      2.19777     -164.697 
1.73507e-05      11.4824     -33.6361 
-1.72533e-05      12.0856      54.8387 
8.88270e-05      9.03701     -176.449 
-0.000115546      10.9840      153.388 
3.03782e-05      3.84077     -28.9687 
-1.71274e-05      6.21124     -171.293 
-1.70734e-05      3.62262     -153.435 
6.25884e-05      4.49151     -61.8380 
-4.65251e-05      7.69479     -12.9155 
-1.69872e-05      3.06135     -18.6703 
0.000133093      7.63692      44.3631 
-7.59287e-05      8.88586      41.2578 
-1.68430e-05      8.78017     -51.3807 
7.97882e-05      13.3086     -130.367 
-3.17652e-05      8.02546      129.640 
-1.67461e-05      6.53581     -34.9053 
0.000204185      9.67340     -102.053 
3.23740e-05      9.34426     -91.7165 
-1.66525e-05      12.6968      130.465 
1.66840e-05      12.2277      42.8787 
6.03028e-05      11.4764     -33.7732 
-3.22673e-05      11.8691     -46.4345 
1.63611e-05      7.70334      18.1508 
-1.63113e-05      2.71304     -35.1011 
1.62008e-05      11.1367      114.171 
-0.000195097      6.55244     -34.8039 
5.62125e-05      8.52093      139.092 
-0.000115568      9.72849      36.3042 
-0.000154712      6.95263      8.27178 
-0.000154549      12.6991      130.336 
-0.000179980      10.6374     -25.2635 
1.60421e-05      4.52568     -177.215 
3.10955e-05      7.36123     -125.934 
-2.98355e-05      10.5960     -109.631 
-1.58823e-05      10.0330      167.100 
-3.09789e-05      5.05595      149.576 
9.69720e-05      6.66192     -159.989 
-4.22810e-05      6.97991      143.622 
1.56120e-05      8.53626      139.181 
-0.000274479      12.0663      57.1776 
3.03451e-05      8.78338      116.217 
2.84400e-05      10.5624      162.251 
-1.53354e-05      8.45626      53.0762 
3.00050e-05      6.75989     -45.0000 
-4.27648e-05      3.21351     -125.371 
0.000219872      11.2675      132.555 
-1.52297e-05      6.20821     -171.478 
-1.52225e-05      8.80252     -51.8269 
0.000208154      10.3682      15.3217 
-1.50868e-05      9.30491     -4.18997 
-1.50490e-05      11.0014      153.433 
-1.49631e-05      12.0972      54.7602 
2.87322e-05      12.5160     -37.2718 
-4.17431e-05      9.99609     -160.115 
-5.18587e-05      9.82236     -1.16878 
1.47900e-05      11.6160     -133.257 
-0.000503479      13.2849      43.3544 
1.47401e-05      7.63488     -109.432 
-5.44333e-05      9.60856      19.4510 
-2.86381e-05      10.4729     -156.716 
5.68650e-05      13.2960     -130.303 
-1.46048e-05      3.83175     -13.8920 
-4.11780e-05      8.39799      55.9706 
-1.44748e-05      6.96419     -61.1511 
-1.44907e-05      2.70144     -34.7495 
7.75851e-05      11.1029     -121.373 
-5.32664e-05      5.03914      149.464 
-9.16563e-05      13.6357     -46.0702 
-1.43733e-05      6.98242      1.47795 
6.64394e-05      6.75995     -44.7571 
2.67120e-05      7.77516     -28.0787 
6.73024e-05      7.37314     -126.062 
1.42233e-05      4.52670     -176.959 
-2.66343e-05      6.52326      170.826 
0.000121236      8.79202      116.331 
-1.41304e-05      8.82135     -52.0900 
-2.74617e-05      8.82840     -64.0731 
-2.74109e-05      1.97597      58.2414 
7.24077e-05      7.38855      116.011 
7.17367e-05      8.56112     -43.0145 
-5.33794e-05      6.10250     -130.217 
0.000104258      10.9248      127.560 
6.04938e-05      9.79796      72.4143 
-1.37808e-05      11.6250     -44.8614 
1.37543e-05      7.74115      18.0591 
1.36882e-05      12.4911     -40.0629 
-1.36904e-05      8.83182     -80.0879 
-1.36441e-05      10.8444      48.9644 
4.65489e-05      4.24105     -95.6864 
3.81413e-05      11.5880     -133.250 
7.83889e-05      9.26481      121.494 
2.64668e-05      12.0966      43.3260 
-1.35290e-05      7.00268      1.47368 
1.35078e-05      8.31459     -5.24546 
-1.35161e-05      10.4466     -156.770 
0.000168114      13.3240     -130.310 
7.20962e-05      6.63412      157.298 
-2.57508e-05      8.82493     -52.2746 
-1.34293e-05      3.01648     -108.552 
0.000143792      10.6004      56.6992 
1.32030e-05      10.9371      127.644 
-1.31817e-05      10.0285      167.213 
6.01043e-05      12.4756     -40.1228 
-4.97114e-05      10.8292      48.8940 
-1.31248e-05      6.23127     -171.322 
-2.55761e-05      2.99180     -108.317 
0.000130577      4.48396     -61.4921 
-0.000101414      9.48019     -48.6776 
-3.26003e-05      9.80252     -1.28521 
1.30122e-05      4.50544     -177.203 
-6.81667e-05      11.1768     -113.629 
-3.42374e-05      10.3799      170.576 
1.28648e-05      7.62816     -109.289 
5.94135e-05      12.5204     -37.1446 
-0.000105887      8.81881     -79.8107 
-1.27412e-05      1.94809      58.4344 
-0.000195328      13.6357     -46.1884 
-2.51451e-05      10.4207     -156.830 
1.26640e-05      1.63042     -56.5074 
-5.47657e-05      8.17154      57.0877 
6.03870e-05      11.3915      137.063 
-3.65944e-05      9.97704     -160.075 
-2.47215e-05      7.02218      1.46959 
1.24992e-05      9.09718      117.351 
4.70657e-05      11.5701      127.977 
-2.39329e-05      9.22930      9.60400 
-1.24010e-05      7.79948      74.0743 
-2.37952e-05      7.70931     -12.7363 
0.000147790      7.62329      44.2582 
-2.35411e-05      11.6251     -44.7202 
-8.67314e-05      6.93258      8.29587 
-7.89727e-05      11.8580     -149.716 
3.54792e-05      12.0824      43.3894 
-0.000119828      10.6594     -67.9582 
1.21706e-05      9.43841     -72.8688 
-5.78089e-05      9.68565      38.8803 
3.56306e-05      12.0869      140.305 
-2.33871e-05      6.11512     -130.357 
2.31472e-05      7.76041      18.0127 
-1.20822e-05      10.0095      167.188 
1.20550e-05      6.62840     -152.892 
1.20469e-05      8.05108     -25.6121 
-3.31093e-05      4.16034      90.5477 
5.76871e-05      8.33294     -5.09400 
0.000115244      6.77423     -44.8788 
-1.19323e-05      7.01389      10.3482 
9.99663e-05      9.09791      117.637 
1.18220e-05      9.62024     -28.4321 
3.34605e-05      7.41235     -126.221 
4.45219e-05      9.30889     -177.538 
1.17797e-05      3.85026     -29.2227 
3.41851e-05      2.23688     -74.9708 
4.55551e-05      6.60114     -152.969 
2.28564e-05      9.45184     -73.0223 
-3.36357e-05      8.38709      56.0810 
-3.34535e-05      4.71302     -68.3324 
-1.16898e-05      13.1392      129.629 
-1.16677e-05      8.84097     -52.3549 
-4.32375e-05      13.2513     -45.0596 
-2.19915e-05      2.99799     -108.671 
-2.27508e-05      7.04243      1.46536 
-9.57259e-05      9.95180     -160.147 
0.000123256      11.7486      150.642 
1.16059e-05      9.96440     -26.9780 
0.000116084      10.6116      56.6077 
3.33905e-05      10.0942      100.039 
-0.000277305      8.45147     -8.43442 
2.27344e-05      6.64359     -159.932 
0.000118921      6.59446     -77.5674 
0.000164362      11.3910      136.922 
-4.35808e-05      13.1263      129.561 
0.000137384      10.5605      28.5081 
-2.24515e-05      10.4262      167.032 
-1.12896e-05      10.3941     -156.889 
1.13355e-05      12.3709     -47.3574 
8.92263e-05      8.56021     -43.1991 
-1.13142e-05      6.32535      115.267 
-3.17782e-05      10.6291     -25.1684 
3.23725e-05      12.0713      140.243 
-5.26843e-05      6.56402     -34.9491 
2.22175e-05      6.61919     -153.049 
-2.18932e-05      11.9314      56.0711 
0.000286423      13.4888      139.388 
4.30417e-05      10.8741     -70.3334 
-3.24334e-05      6.58893      9.43229 
9.47586e-05      9.69672     -102.146 
-0.000100793      12.9943     -127.999 
1.10223e-05      10.5501      162.114 
2.17033e-05      4.69696     -102.793 
9.26613e-05      12.0677      43.4555 
2.07866e-05      5.54387     -143.215 
-7.95532e-05      11.0196     -21.9572 
-1.09461e-05      10.9927      153.297 
8.59065e-05      11.2169      43.7721 
-1.08572e-05      10.4408      167.160 
2.14960e-05      12.2373      127.563 
-2.93019e-05      9.52123     -124.990 
-6.16417e-05      6.56694     -102.130 
-4.79023e-05      6.93112     -133.833 
1.08033e-05      7.85342      13.3976 
5.11603e-05      6.63692     -160.090 
7.80049e-05      11.5667      128.118 
4.12613e-05      2.22270     -74.3309 
3.14981e-05      10.0541      158.897 
-1.07689e-05      10.4563     -126.364 
0.000124133      10.3145     -83.0973 
-7.89347e-05      9.67342      38.7903 
7.84516e-05      5.92196     -88.4534 
8.18353e-05      13.3114     -130.246 
-1.06511e-05      8.07683     -33.1763 
-2.06795e-05      8.81975     -63.8993 
0.000159798      12.2281      127.357 
1.05994e-05      12.3830     -47.1585 
6.01456e-05      6.59196     -153.126 
-2.09757e-05      13.8100     -136.878 
-8.64151e-05      10.4218      167.136 
-1.04589e-05      1.92127      58.6256 
3.02579e-05      7.06441     -177.894 
-4.85227e-05      7.06194      1.46131 
-8.47635e-05      5.49106     -13.4817 
5.80315e-05      7.42434     -126.348 
2.05018e-05      10.0785      100.172 
-1.03714e-05      10.0242      167.321 
-4.95991e-05      12.8024     -138.041 
8.35733e-05      9.85752      45.5767 
2.01138e-05      6.64167      157.143 
-2.94740e-05      8.83520     -79.9633 
-1.03107e-05      8.57745     -57.5696 
-5.87951e-05      6.61226      9.57670 
-0.000144295      13.7819     -136.880 
2.91927e-05      10.8809     -70.2329 
-2.03808e-05      12.7829      129.667 
-4.61896e-05      9.54883     -125.023 
-1.89694e-05      11.1119     -48.7948 
-2.00650e-05      9.28927      68.7933 
1.01644e-05      11.1445      146.939 
-2.86020e-05      13.2549      39.5514 
-0.000221499      11.8682     -149.631 
-2.94380e-05      7.26289      153.861 
-0.000264198      12.0553      57.2586 
1.00284e-05      9.61241     -28.5898 
-3.84775e-05      13.1166      129.370 
-4.63850e-05      11.2927     -61.6639 
-9.98937e-06      8.82907     -52.4552 
1.96428e-05      12.5237     -37.0168 
2.84691e-05      6.54813      53.4479 
-9.95433e-06      10.1872     -148.650 
-1.84404e-05      8.70701     -98.9842 
4.63406e-05      8.80102      116.449 
2.94451e-05      9.70084     -102.259 
-9.92281e-06      6.25640     -59.6644 
-5.71549e-05      10.6519     -68.0592 
-9.87162e-06      12.2080      142.924 
-2.85824e-05      6.17430     -24.9050 
3.79101e-05      10.9335      127.793 
8.95366e-05      10.3442      15.2460 
-9.83052e-06      6.33403      115.433 
-1.94174e-05      8.79170      18.8479 
-0.000126830      13.6369     -46.3065 
-4.79634e-05      12.7861      129.542 
-1.93463e-05      9.76165      115.094 
2.81653e-05      10.0660      159.043 
-1.89882e-05      5.56166      178.763 
-5.54545e-05      10.5827     -109.428 
-0.000167599      9.90707     -160.173 
-9.73186e-06      8.35960      56.1216 
-4.74110e-05      12.2041      142.791 
4.60849e-05      12.0688      140.108 
-9.74450e-06      10.4683     -126.453 
2.88383e-05      10.0622      100.306 
0.000116049      11.4876     -33.8572 
3.83865e-05      13.2983     -130.180 
1.90013e-05      8.02523      23.4969 
9.65867e-06      4.71598     -102.740 
1.91734e-05      12.0390      43.4518 
0.000217233      9.72496     -102.350 
-0.000113373      9.28196      68.9099 
-9.55576e-06      2.97880     -108.796 
9.54468e-06      10.4649      26.8094 
-3.62128e-05      6.56271     -101.957 
-2.78307e-05      13.2651     -45.0000 
6.11050e-05      12.0567     -37.3827 
-9.48616e-06      6.24369      173.194 
0.000163943      9.14983      44.7342 
1.85412e-05      4.22089     -95.7136 
-9.48887e-06      10.1978     -148.553 
2.78214e-05      5.56010     -143.340 
1.87728e-05      12.0530      43.5218 
-9.43653e-06      4.69420     -68.2411 
-9.39531e-06      9.48256     -48.8469 
-9.38303e-06      10.7390      138.473 
1.83553e-05      7.06519     -177.730 
-5.33358e-05      8.74681      18.8080 
-2.74668e-05      9.77025      115.201 
-0.000109285      6.54289     -101.994 
1.85913e-05      13.2853     -130.113 
-9.32290e-06      2.95963     -108.922 
-2.74412e-05      12.4894      142.288 
5.34698e-05      6.61098     -160.195 
9.29028e-06      10.0430      100.326 
1.83993e-05      5.40612     -79.7741 
0.000137033      11.7387      150.728 
1.82398e-05      12.5399     -36.9611 
-9.25022e-06      6.96770      10.0852 
9.23295e-06      10.7619      55.6030 
-9.22980e-06      6.22676      172.988 
-6.89466e-05      12.7873     -137.980 
0.000196078      12.0249      43.5158 
-7.78642e-05      12.1383     -32.8265 
-8.72140e-05      12.7888      129.414 
-2.66926e-05      10.1699     -148.591 
-2.66301e-05      7.28109      153.931 
5.39141e-05      13.3002     -130.059 
9.14499e-06      6.63890      156.753 
0.000119446      10.1596      5.08064 
5.16938e-05      6.52306     -16.9341 
-3.50430e-05      8.81525     -79.9403 
8.64070e-05      10.0266      100.456 
-4.43049e-05      9.78869     -150.503 
2.63531e-05      6.56507     -153.198 
-2.58906e-05      4.14032      90.8308 
-5.94607e-05      6.63563      9.72010 
2.60382e-05      10.9455      127.874 
-5.20494e-05      6.16452     -25.1551 
6.03057e-05      11.3901      136.778 
-0.000101809      13.7538     -136.886 
4.39372e-05      5.38983     -79.5239 
-9.00059e-06      10.7378      138.323 
2.53294e-05      7.59518      44.2515 
-4.28797e-05      12.1885      142.736 
6.82348e-05      5.64759     -147.435 
-1.76578e-05      2.91568     -108.813 
8.91126e-06      10.8910     -122.550 
6.75264e-05      7.99957      23.4244 
-0.000118613      13.0342     -141.353 
-5.12446e-05      7.08274      1.62097 
-8.85604e-06      12.4734      142.231 
5.03525e-05      12.5439     -36.8315 
-7.56814e-05      13.2674      39.6164 
-1.74317e-05      6.94775      10.1144 
-4.29266e-05      10.4020      167.112 
-3.47211e-05      13.7400     -136.947 
-8.80998e-06      10.7197      137.951 
5.81523e-05      6.77423     -45.1212 
-1.71615e-05      5.54188      178.549 
6.85851e-05      13.2876     -129.994 
8.74554e-06      6.64662      156.598 
-3.37281e-05      6.14221      175.143 
8.72039e-06      9.95272     -130.928 
-6.68223e-05      12.4698      142.101 
-4.22025e-05      7.41994     -70.6397 
-5.83320e-05      13.1067      129.177 
1.70318e-05      5.58785     -143.293 
1.72122e-05      7.08626     -177.572 
-3.34678e-05      3.04106     -116.559 
8.67014e-06      7.39662     -126.311 
-4.18366e-05      10.5760     -109.325 
-8.64660e-06      9.57876     -3.59313 
-1.69642e-05      9.66074      38.6966 
8.61233e-06      9.96804     -130.852 
-3.30999e-05      10.6624     -68.1993 
-5.88590e-05      13.6842     -137.073 
1.69426e-05      4.49366     -61.2651 
8.58749e-06      10.5886     -121.168 
-2.52459e-05      10.7025      137.574 
2.47843e-05      8.28042     -75.5960 
-8.57232e-06      8.51685     -81.3552 
8.51505e-06      1.62275     -59.6406 
5.78783e-05      11.7132     -59.1861 
8.54666e-06      10.3653     -30.6216 
8.52734e-06      13.3778     -130.452 
-1.66509e-05      11.3010     -61.8031 
1.68032e-05      8.58383      143.052 
-2.51866e-05      13.6222     -46.2476 
8.47767e-06      6.64397      156.214 
4.94339e-05      9.98130     -130.940 
-1.67849e-05      11.4200     -37.1703 
-4.11128e-05      9.81630     -150.458 
-4.11339e-05      9.73016      38.0719 
-4.92147e-05      13.6229     -46.3681 
-3.29737e-05      9.98216      78.4434 
8.42983e-06      8.93885      162.823 
-7.38761e-05      9.89383     -80.5755 
2.47180e-05      5.38618     -79.7358 
-8.40614e-06      2.87807     -109.068 
4.91141e-05      10.3728     -30.4718 
-8.39167e-06      7.66669      147.137 
2.48945e-05      1.54340     -71.1070 
-2.46256e-05      9.59773     -3.46484 
0.000106278      13.2746     -129.927 
2.44906e-05      11.4828     -33.9954 
2.45235e-05      7.58625     -77.9765 
-2.46192e-05      9.86173     -91.0464 
-2.46289e-05      7.29009      154.137 
-1.65466e-05      12.3385     -125.700 
2.46511e-05      6.58316     -153.277 
8.32260e-06      9.38925     -92.5651 
-2.44561e-05      9.27178      8.05797 
-1.66248e-05      13.2707      43.4122 
-8.31779e-06      5.50610     -13.2276 
1.63967e-05      6.64262      155.827 
-2.46368e-05      7.68371      147.219 
4.90837e-05      11.4989     -33.9410 
2.45990e-05      13.3909     -130.518 
-1.63366e-05      8.70264      18.7662 
-8.27486e-06      10.4173      167.245 
-4.89374e-05      13.1691      43.8318 
-6.51101e-05      12.7911      129.289 
-2.45877e-05      13.6980     -137.011 
-3.26674e-05      10.7843      148.962 
-2.45412e-05      3.78333     -73.0961 
8.23217e-06      6.58506     -160.301 
2.44491e-05      9.82940      45.5753 
-3.24522e-05      10.3975      167.220 
-8.20955e-06      11.9205      56.1489 
2.43039e-05      14.2985      134.375 
2.42861e-05      13.5015      139.325 
2.43833e-05      10.0104      100.591 
8.19405e-06      10.3076      173.424 
-2.43248e-05      10.7007      137.424 
-2.43400e-05      12.3549     -125.645 
-1.62452e-05      8.04649     -30.9638 
8.17416e-06      9.41038     -92.6783 
2.43204e-05      9.31176     -98.8961 
-4.03664e-05      13.7118     -136.949 
-1.62130e-05      12.2575      37.8408 
8.14370e-06      2.25401     -58.4212 
-2.43270e-05      7.43192     -70.8314 
1.61477e-05      3.71413     -51.3402 
-1.61811e-05      10.4967     -126.477 
8.14523e-06      10.7733      55.5141 
-2.42254e-05      10.7745      112.139 
-8.12227e-06      6.60126     -116.644 
1.61899e-05      10.1263     -27.5278 
1.61745e-05      1.55008     -70.3984 
-2.41515e-05      13.0622     -141.341 
-8.09703e-06      6.21295      11.8908 
1.61557e-05      10.0575     -114.932 
-8.07851e-06      10.5504     -109.261 
-1.61218e-05      3.77749     -73.3901 
8.09000e-06      12.2095      131.814 
-8.08800e-06      13.3074     -48.7150 
-8.06247e-06      5.51077     -13.4326 
-8.06369e-06      13.1095      129.057 
8.05168e-06      9.33493     -98.9997 
-1.60652e-05      9.88871     -160.135 
8.06511e-06      2.23678     -58.1495 
-8.07555e-06      7.80720      144.802 
1.60624e-05      11.9967      43.5148 
8.05924e-06      11.2539      132.479 
-1.60810e-05      13.1827      43.8930 
8.03303e-06      11.5898     -138.496 
8.04428e-06      12.0102      43.5823 
8.04241e-06      13.4322     -130.591 
-8.03372e-06      12.1847      142.602 
-8.03827e-06      7.10357      1.77365 
-8.02217e-06      10.8675      160.430 
8.02067e-06      6.57408     -153.435 
8.02261e-06      11.5021      151.206 
-8.02124e-06      9.43392     -119.879 
-8.03286e-06      10.7770      148.818 
-8.00075e-06      10.5895      39.2514 
7.99692e-06      6.57851     -160.461 
-8.01423e-06      10.4128      167.354 
-8.01090e-06      13.6561     -137.075 
8.01433e-06      10.3247      15.2756 
8.01526e-06      10.0309     -114.880 
-8.01952e-06      11.4244     -37.0310 
-8.02527e-06      2.82796     -109.839 
7.98300e-06      10.3905     -169.013 
! Tentative model.
! Flux (Jy) Radius (mas)  Theta (deg)  Major FWHM (mas)  Axial ratio   Phi (deg) T \
! Freq (Hz)     SpecIndex
-1.00632e-05      10.5505     -109.259 
