! Center RA: 12 21 31.69052,  Dec: +28 13 58.50011 (2000.0)
! Established model.
! Flux (Jy) Radius (mas)  Theta (deg)  Major FWHM (mas)  Axial ratio   Phi (deg) T \
! Freq (Hz)     SpecIndex
 0.0849697    0.0202604      0.00000 
 0.0177682      0.00000      0.00000 
 0.0136156    0.0202604      90.0000 
0.00434780     0.159832      90.0000 
 0.0132757     0.180093      90.0000 
0.00975274    0.0286526     -45.0000 
0.00251098    0.0202604     -90.0000 
0.00682340     0.200353      90.0000 
0.00279718     0.219863      90.0000 
0.00196624     0.280627      94.1402 
0.000249679     0.260423      94.4620 
0.00187201    0.0446338      63.0042 
0.00133659     0.300838      93.8616 
0.00226396    0.0286526      45.0000 
0.00103460     0.320306      93.6266 
0.000198821     0.340529      93.4109 
0.000196267     0.342244      96.6731 
0.00114778     0.362375      96.3009 
0.00123292     0.381773      95.9795 
0.00132955     0.810060      105.749 
0.00170951     0.829578      105.369 
0.00126090     0.401929      95.6787 
0.00301800    0.0446338     -63.0042 
0.000988393     0.854601      106.319 
0.000535811     0.422095      95.4065 
0.000269497     0.917698      106.434 
0.000262125     0.936427      106.097 
0.00183780     0.443806      97.7739 
0.000380188     0.766529      105.152 
0.000625420     0.961610      106.922 
0.000760911     0.742542      104.036 
0.00145504     0.981011      106.578 
0.00321779    0.0828082     -75.8378 
0.00226159     0.718124      102.860 
0.00249830      1.00559      107.367 
0.000460627     0.463888      97.4354 
0.00113346     0.441522      95.1680 
0.000293079      1.01158      108.422 
0.00144972     0.461703      94.9415 
0.00147092      1.03082      108.066 
0.00252012    0.0896014     -63.6495 
6.64804e-05     0.771858      106.550 
6.40930e-05     0.821746      108.418 
0.000235564     0.161111      82.7757 
6.10971e-05     0.873371      110.101 
0.000176999     0.694181      101.662 
0.000117264      1.03728      109.130 
5.87808e-05     0.854373      110.568 
0.000231040      1.05010      107.723 
0.000113037     0.880267      111.293 
5.63893e-05     0.667840      98.5944 
0.00106324     0.986983      107.705 
0.000662755     0.164706      76.0271 
0.000372076     0.145849      74.1761 
0.000219433     0.967701      108.070 
0.00103914     0.581411      93.9223 
0.000856081    0.0562440     -45.0000 
0.000192375      1.02494      107.029 
6.20595e-05      1.04433      106.703 
0.000290041     0.561200      94.0638 
0.000227574     0.184432      77.5470 
0.000176072      1.06303      106.401 
5.88728e-05     0.961787      110.697 
0.000112552     0.943561      111.116 
0.000167465      1.08248      106.098 
0.000775058      2.65702      107.063 
0.000438439     0.560155      92.0728 
0.000607965     0.540658      92.1476 
0.000212612      1.10196      105.806 
5.31212e-05     0.924690      111.568 
0.000152002      1.10744      106.777 
0.000100373     0.932329      112.726 
0.000189348     0.204262      78.7726 
0.000238819      1.12075      105.534 
0.000629613     0.107434     -68.2729 
0.000187818      2.99792      107.464 
0.000184475     0.940038      113.823 
4.70911e-05      2.63766      107.193 
0.000311191      2.63196      106.787 
9.04664e-05      3.01725      107.349 
0.000176896     0.580403      92.0005 
4.51996e-05      1.12613      106.491 
4.45337e-05      3.00406      107.833 
0.000332821      1.14028      105.262 
0.000377817      3.02335      107.715 
0.000169660     0.921540      114.332 
4.25476e-05     0.559789      90.0000 
0.000326869     0.223431      79.7468 
4.20169e-05      2.62618      106.364 
0.000204642     0.580049      90.0000 
0.000318830     0.116465     -58.9729 
0.000122576      2.60746      106.484 
0.000195089     0.600310      90.0000 
0.000303337     0.930071      115.469 
0.000193799      2.60200      106.072 
0.000377491      3.02958      108.080 
3.81524e-05     0.260423      85.5380 
0.000317217      1.15984      104.998 
0.000256296     0.126477     -71.6725 
3.75400e-05     0.460433      92.5220 
0.000146433      2.59646      105.643 
0.000181223     0.619820      90.0000 
7.08748e-05     0.440193      92.6380 
0.000274144      3.03569      108.430 
0.000139188      2.59107      105.211 
0.000424787     0.134233     -63.4349 
6.93192e-05     0.912496      115.996 
6.83608e-05     0.620151      88.1278 
0.000287866     0.640401      88.1870 
6.73987e-05     0.938962      116.586 
0.000132442      2.58602      104.794 
0.000390552     0.921556      117.128 
0.000609467      3.05492      108.310 
0.000149660     0.420705      92.7603 
6.38422e-05      2.41823      110.831 
3.19343e-05      2.58092      104.359 
0.000257612     0.189835      71.5651 
0.000389863      1.17370      103.796 
6.20529e-05      2.85990      112.622 
3.13634e-05      2.57597      103.923 
0.000151529      2.39931      111.003 
6.10296e-05      2.57135      103.501 
0.000666117     0.145849     -74.1761 
5.89138e-05      2.56669      103.061 
0.000141300      2.86775      112.996 
0.000247415     0.661537      86.5534 
0.000608440      2.38780      111.631 
5.70647e-05      2.58123      102.525 
0.000160969      2.57707      102.102 
0.000396881      1.79116      96.4224 
5.38389e-05      1.79345      97.0418 
0.000395588     0.930615      118.197 
0.000149134      2.89404      113.195 
0.000209217     0.178866      63.3275 
0.000170741      2.57290      101.661 
0.000210558     0.682496      84.9539 
0.000121218      3.06741      107.850 
2.36828e-05      2.87543      113.354 
8.69731e-05      1.19339      103.564 
0.000238950      3.06126      107.489 
2.31705e-05     0.404436      98.5360 
0.000195523      2.56888      101.218 
0.000168893      2.90208      113.562 
0.000263092     0.912809      118.798 
6.49673e-05     0.384412      98.9843 
0.000861211      1.81129      96.3507 
8.27919e-05      1.18880      102.615 
0.000121462     0.704700      83.4577 
0.000355598     0.164706     -76.0271 
2.06624e-05     0.365154      99.4623 
0.000112312     0.172194      54.5784 
0.000293274      3.05523      107.127 
6.74206e-05      1.08147      86.8180 
0.000170725      2.56516      100.791 
4.01259e-05     0.388092      101.940 
0.000135524      4.30115      111.556 
1.98865e-05      3.73197      107.469 
5.53460e-05      2.37699      112.241 
0.000185229     0.940357      119.286 
9.53637e-05      3.73787      107.755 
3.87952e-05     0.412220      104.011 
0.000130220      3.96811      103.406 
0.000126179      2.36967      111.805 
3.73902e-05      1.08279      85.7475 
0.000125216      2.91024      113.928 
5.59392e-05     0.417588      106.709 
0.000522607      1.06498      84.6228 
0.000164328     0.707189      81.8871 
0.000306888      4.31193      111.211 
7.11993e-05      3.72555      108.143 
1.81417e-05      1.19830      104.506 
7.09221e-05     0.423858      109.333 
3.47715e-05      1.20333      105.406 
0.000369310      3.96346      103.121 
6.80218e-05      2.54599      100.873 
0.000227904     0.169793      45.0000 
9.96709e-05      3.73191      108.439 
6.66083e-05     0.430710      111.783 
4.85157e-05      1.22833      106.066 
3.27573e-05      3.04955      106.776 
0.000292525     0.922740      119.901 
0.000258388      2.35825      112.428 
0.000121838      2.93600      114.122 
3.20396e-05      2.56144      100.345 
0.000272193      3.06895      106.667 
0.000420279     0.181229     -83.5812 
0.000159678      2.54225      100.424 
3.17621e-05     0.457182      113.199 
0.000115429      3.73813      108.722 
4.57343e-05     0.950432      120.351 
0.000196096      3.57710      112.692 
8.99435e-05     0.438632      114.241 
5.94421e-05      1.23409      106.970 
0.000354829      4.33820      122.956 
0.000133163     0.447333      116.608 
0.000199741     0.730308      80.5377 
4.11186e-05      1.23993      107.832 
0.000219689      4.33083      111.114 
4.08133e-05      2.95451      113.961 
6.28875e-05      2.96279      114.319 
3.83705e-05      1.24628      108.719 
5.91032e-05      2.55788      99.8989 
0.000149859      3.72553      109.117 
8.12992e-05      2.53866      99.9746 
0.000285029      3.06320      106.304 
0.000168924      3.98319      103.054 
0.000164741      2.34023      112.610 
0.000372977     0.456404      118.798 
5.86713e-05      1.25293      109.596 
0.000170375      3.55061      112.516 
6.87436e-05     0.172194      35.4216 
0.000138180      2.98127      114.159 
5.63967e-05      1.83068      96.2831 
6.63257e-05     0.895107      119.423 
5.34531e-05      1.25961      110.432 
4.26929e-05      1.90850      95.4147 
4.91414e-05     0.743162      113.822 
0.000245345     0.184676      40.5508 
6.94173e-05      4.32357      110.863 
6.78051e-05      1.92867      95.3579 
3.02282e-05     0.960438      121.355 
0.000141647      2.55460      99.4679 
0.000232336     0.200353     -90.0000 
6.73697e-05      1.26682      111.291 
0.000211775      3.97883      102.781 
3.59601e-05     0.717210      112.970 
0.000145407      2.32154      112.802 
3.67753e-05     0.987667      121.770 
7.53022e-05      2.98930      114.500 
0.000223412      4.34251      110.768 
8.98247e-05      3.71894      108.822 
0.000197145      3.55841      112.818 
0.000180906      3.00707      114.346 
8.98189e-06      2.53536      99.5404 
8.31988e-05      1.27432      112.140 
0.000162188      1.94632      94.7104 
0.000138661     0.725357      114.444 
3.29488e-05      1.80916      95.7130 
0.000205997      3.05757      105.940 
7.94804e-05     0.998483      122.759 
0.000219025     0.751254      115.183 
1.61682e-05     0.188432      58.0188 
2.97426e-05     0.733911      78.9773 
6.86195e-05     0.349107      113.700 
6.68974e-05      1.28180      112.948 
0.000134052      3.99786      102.719 
7.18853e-05      1.78901      95.7775 
0.000149477      2.55134      99.0191 
6.93777e-05      2.30287      112.998 
2.12615e-05      1.27132      114.144 
6.04513e-05      4.31018      122.877 
1.38974e-05      3.71270      108.537 
4.73560e-05     0.201375     -95.7743 
0.000131918      1.09851      123.126 
1.30891e-05     0.753070      79.2611 
6.69330e-06      3.70630      108.241 
6.69240e-06      2.31086      113.460 
6.53801e-06      3.70134      106.962 
0.000122557     0.220795     -95.2649 
6.36058e-06      3.69569      106.673 
7.19592e-05      2.30118      114.116 
6.29184e-06      1.27974      114.972 
6.24914e-06      3.65943      105.863 
9.02529e-05      3.56632      113.118 
0.000164021      2.29298      113.654 
0.000192995      4.32121      123.102 
1.77558e-05      1.25320      118.621 
3.26211e-05     0.756949      77.8100 
0.000149657      3.05227      105.587 
0.000133153      3.01548      114.696 
6.02166e-06      3.64856      105.251 
3.02297e-05      3.73197      109.400 
6.03641e-05      4.01763      102.655 
0.000179882     0.331336      115.056 
1.15664e-05      3.60879      104.117 
9.90386e-05      1.94482      94.1376 
0.000147772      4.36075      110.677 
3.59857e-05      1.28983      113.776 
1.10961e-05      3.58016      103.564 
9.40772e-05     0.188432      31.9812 
4.37839e-05      3.73874      109.693 
9.15037e-05      1.27103      118.184 
0.000159118      3.55130      103.017 
7.28148e-05      1.06333      85.6695 
5.70046e-05      4.03740      102.592 
6.10719e-05     0.223431     -100.253 
0.000101828      2.54825      98.5691 
3.09634e-05     0.781185      76.6712 
5.31646e-05      4.05644      102.532 
2.92957e-05      1.29979      112.612 
3.15834e-05      1.78708      95.1313 
3.26193e-05      3.72659      110.092 
7.77929e-05      1.96368      93.5053 
8.64681e-05      3.04689      105.220 
8.51804e-05     0.243395     -99.4042 
3.57837e-05      4.07622      102.470 
5.34963e-05      4.37972      110.584 
3.72674e-05     0.205897      28.9938 
6.60684e-06      1.76690      95.1900 
6.67579e-06      4.09170      102.132 
2.19072e-05      3.54770      113.246 
4.84896e-05      4.11078      102.075 
1.19690e-05      2.32636      115.466 
2.04505e-05      1.28826      117.774 
8.87083e-06     0.786103      75.2342 
5.96414e-06      3.06811      115.901 
2.92717e-06      3.55544      113.535 
1.68426e-05     0.247514     -104.036 
5.56688e-06      3.56208      114.546 
5.49456e-06      4.14626      101.684 
0.000154721      7.84507     -78.2333 
0.000495154      7.37102      43.3500 
3.76141e-05      7.86022     -78.4015 
0.000145598      8.64521      166.896 
0.000486679      11.4710     -135.917 
0.000357745      9.40573     -165.846 
0.000295829      10.2604     -75.2035 
0.000137141      7.84111     -78.3728 
-0.000253258      7.53626      65.5428 
-0.000251909      11.1626     -62.9285 
0.000409916      8.64982      166.765 
-0.000233147      1.98844      5.19639 
-0.000254792      9.70884     -18.9937 
-0.000389523      10.4273      59.4506 
-0.000208915      10.8653      143.911 
0.000198749      10.2122     -87.1950 
0.000206211      6.23294     -10.9163 
0.000122234      9.40080     -165.966 
9.28680e-05      13.3592     -50.0403 
0.000172061      12.4882      44.5448 
-0.000199871      6.27171      168.222 
6.11482e-05      7.85218     -78.6911 
-0.000148749      2.68549     -21.4030 
0.000248579      8.69626     -79.1274 
0.000109258      11.3442     -138.075 
-0.000139629      13.2772     -140.196 
-0.000110893      5.97997     -179.619 
0.000137893      7.72783     -153.569 
0.000274357      3.74455      49.3315 
-0.000269545      12.2810      56.1555 
-3.00890e-05      7.74234     -125.537 
0.000113581      9.74947      26.8293 
8.43510e-05      6.20770     -27.2279 
0.000263756      13.3722     -49.9738 
-8.47777e-05      7.75413     -125.659 
-8.20148e-05      9.27766     -97.4308 
5.71152e-05      10.7838      33.8073 
-0.000207921      7.59977      53.1278 
-0.000132100      10.8416     -111.312 
7.86298e-05      9.13608     -128.601 
0.000180537      10.2552     -75.3130 
-0.000130551      12.5677     -129.770 
-2.80823e-05      10.0508      39.9967 
-0.000129127      9.72675      173.270 
5.29569e-05      9.12345     -128.502 
-0.000135199      13.5800     -131.059 
-7.74239e-05      7.22736      156.341 
-0.000102591      6.29154      168.260 
-0.000153093      2.70366     -21.2522 
5.31029e-05      7.83705     -78.5179 
-2.73137e-05      5.96803     -142.895 
-0.000101142      10.0533      39.8340 
7.81925e-05      10.8000      33.7497 
0.000150877      8.94376     -95.6479 
0.000126851      10.0477      115.086 
5.17255e-05      10.3846      79.7944 
-7.59072e-05      8.68204     -91.3223 
-5.19733e-05      12.7252      141.507 
-5.21335e-05      9.64474     -49.3731 
-7.57144e-05      6.99958      38.7375 
-5.05540e-05      5.09146     -161.918 
9.94536e-05      9.73139      26.8832 
-5.07179e-05      7.76552     -125.776 
9.93791e-05      7.78746      72.8222 
-4.98869e-05      10.8489      143.848 
4.87963e-05      6.25210     -10.8824 
9.70237e-05      7.38494      43.4643 
-7.23134e-05      11.1534     -63.0212 
-4.85446e-05      7.54636      65.7465 
-7.26508e-05      10.7469     -120.287 
-2.50656e-05      9.72471      52.3511 
4.80900e-05      12.1425     -123.716 
-4.79071e-05      11.6658     -146.255 
2.44228e-05      6.22914     -10.7333 
-4.75084e-05      8.06113     -179.003 
-2.43422e-05      7.99607     -49.0564 
4.79712e-05      9.19850      78.0796 
-2.42437e-05      10.2417      101.946 
4.76973e-05      3.74201      48.9027 
-2.41377e-05      10.6002     -108.708 
-4.77328e-05      9.70927      52.2808 
-4.73110e-05      9.56458      49.7478 
2.40972e-05      1.68789     -130.673 
-2.38294e-05      11.0508      147.115 
2.37773e-05      6.19846     -27.0614 
-4.70550e-05      4.27241      53.1824 
-2.37382e-05      7.98134     -48.9646 
-2.37164e-05      5.96430     -142.633 
-2.36433e-05      9.56991     -94.5558 
-2.36064e-05      12.7094      141.451 
2.36043e-05      10.7887      33.6602 
-2.34774e-05      10.1334      96.9156 
-2.33692e-05      7.77738     -125.897 
-2.31972e-05      10.2459      102.056 
-2.32291e-05      9.83187     -115.419 
-2.31431e-05      9.71545     -19.1067 
2.31320e-05      7.70970     -153.502 
2.31217e-05      6.54974      54.3196 
2.31051e-05      12.4737      44.6100 
-2.30700e-05      5.82077     -39.9796 
2.30074e-05      11.4473     -43.0875 
-0.000176739      3.34514     -153.745 
-0.000201655      2.58760     -119.137 
-4.77427e-05      2.21320     -96.2286 
-6.98092e-05      3.36333     -153.898 
0.000214556      8.23312      46.3812 
-8.88538e-05      7.27637      155.475 
0.000106610      1.54189     -92.9849 
-0.000119549      2.21109     -95.7067 
-2.20027e-05      11.6386     -41.0264 
-0.000119796      10.3099     -111.390 
-4.21398e-05      9.47685      125.034 
0.000111962      12.8571     -132.100 
7.76060e-05      8.21967      46.4796 
-5.85520e-05      11.9063      58.3916 
-2.09693e-05      11.7663      135.276 
-4.06293e-05      11.6520     -41.1016 
0.000111948      7.04553     -34.5956 
-0.000101634      4.72607     -79.0255 
-0.000187284      10.1383      97.1387 
-9.18609e-05      7.28449      155.336 
-3.91706e-05      11.7949      135.276 
-5.58312e-05      9.46523      124.934 
5.56332e-05      7.74349      72.8785 
-3.68321e-05      14.0601      136.153 
-9.93485e-05      4.24519      51.8843 
-0.000151021      8.52370      4.30663 
-3.71855e-05      3.32698     -153.591 
-1.85082e-05      11.7807      135.346 
4.27842e-05      8.32855     -27.6109 
1.81694e-05      8.40369     -74.5416 
-8.34139e-05      6.68163      170.001 
6.62359e-05      9.39395      115.204 
0.000222197      10.3810      79.9045 
8.24620e-05      9.18216     -100.796 
4.88910e-05      8.34247      148.330 
3.44710e-05      1.56212     -92.9462 
-8.88554e-05      8.78610      92.0851 
-0.000218059      10.3170     -111.491 
4.82580e-05      8.48699      33.4667 
-3.44405e-05      3.30952     -153.441 
-6.63917e-05      7.96042      112.765 
-7.93452e-05      7.98445     -127.673 
-1.74033e-05      11.8025     -41.4947 
4.95389e-05      9.45875     -150.344 
-3.34143e-05      11.8088      135.342 
4.88057e-05      7.31288     -79.9181 
6.33838e-05      8.39831     -74.6748 
3.29543e-05      10.8860     -22.4674 
-3.31495e-05      8.80491      91.9536 
7.66802e-05      8.35590     -27.6696 
0.000152370      7.81052      92.9353 
-0.000148599      11.5520     -131.139 
-9.16564e-05      6.85024      95.3615 
-3.03553e-05      11.8101     -146.956 
-3.09658e-05      10.5390      35.5007 
-1.61989e-05      5.46432     -56.9537 
-3.19954e-05      3.29141     -153.283 
9.92550e-05      7.03405     -34.4597 
-1.58881e-05      14.1580      135.973 
-2.80871e-05      11.8271     -147.010 
4.25163e-05      7.74948      72.7353 
-4.57809e-05      2.60584      72.1233 
-1.53964e-05      3.49623      32.1449 
-3.00032e-05      11.5236     -34.8212 
-2.95932e-05      7.26608      155.269 
-4.36838e-05      7.95260      112.631 
8.04562e-05      9.79296      23.2136 
-2.93122e-05      13.1130      133.704 
1.50301e-05      12.8358      49.3598 
3.53342e-05      10.3776      80.0105 
-7.07112e-05      6.67978      14.0362 
1.49266e-05      5.90048      50.9203 
-0.000289163      10.1609      97.2379 
1.48799e-05      9.47637     -150.404 
-1.48263e-05      12.4249      132.912 
1.47683e-05      10.9047     -22.4267 
-2.88079e-05      5.84385     -171.538 
0.000101661      9.37630      115.255 
-1.46728e-05      14.1862      135.855 
4.24472e-05      5.78096      160.812 
-4.09661e-05      3.27333     -153.124 
0.000228820      8.36498     -27.7880 
1.45551e-05      12.7078      49.3415 
1.44883e-05      12.8440     -132.035 
4.06944e-05      9.20207     -100.772 
-1.43368e-05      2.59969      72.5483 
-4.02365e-05      6.66167      169.971 
9.77295e-05      13.5061     -134.820 
-7.31195e-05      4.68005      67.3780 
-8.88769e-05      7.99685     -127.788 
3.99357e-05      5.90339      51.1866 
0.000208753      12.1121      32.4554 
-0.000310207      11.5069     -34.8788 
6.74692e-05      12.8512      49.4187 
2.65949e-05      9.84756     -59.2137 
-3.81163e-05      4.41453     -166.904 
-2.70793e-05      10.8571     -128.642 
-7.72794e-05      7.90578      135.511 
-4.03638e-05      7.25794      155.409 
-1.38159e-05      2.58037      72.4134 
7.64787e-05      11.8993      145.617 
-1.37340e-05      9.59972     -179.879 
-0.000118259      8.54241      4.16092 
-3.91447e-05      7.33173     -151.127 
-3.45266e-05      10.5226      35.5648 
-3.60291e-05      4.26115      52.0525 
-2.64336e-05      2.57454      72.8273 
-2.63758e-05      7.94483      112.496 
1.33903e-05      7.36482     -158.664 
-1.33609e-05      12.4535      132.917 
2.58200e-05      12.6951      49.4083 
-6.04664e-05      9.59978     -179.763 
-4.94287e-05      9.21564     -42.4491 
-1.31760e-05      14.2139      135.740 
-9.68336e-05      5.82684     -171.312 
3.65345e-05      5.77433      161.002 
-6.98358e-05      6.68473      14.2047 
1.28508e-05      6.40688     -158.962 
-2.50971e-05      6.86966      95.3463 
8.68394e-05      7.21150      123.120 
3.64793e-05      7.39484     -158.917 
-0.000163217      11.5280     -55.3169 
1.26477e-05      8.39317     -74.8033 
-3.64444e-05      10.8450     -128.561 
-4.78894e-05      2.56864      73.2591 
-2.39851e-05      7.93371      119.280 
1.24824e-05      6.11913     -27.6555 
-1.24286e-05      7.24953      155.555 
-1.24554e-05      8.96300      175.905 
4.77046e-05      9.04038      126.997 
-2.35855e-05      3.26519     -152.652 
-4.27245e-05      5.40537      98.9367 
0.000122423      12.8792      49.4067 
-3.50674e-05      8.78686      92.2171 
-4.57347e-05      7.26798      155.621 
8.36146e-05      11.9711     -125.548 
-2.38124e-05      12.4949      132.990 
3.52489e-05      10.1341     -86.9440 
-1.19891e-05      3.76792     -52.7695 
-7.75387e-05      10.2988     -111.531 
-1.19754e-05      14.2417      135.625 
-2.31430e-05      7.93738      112.366 
-5.59489e-05      5.96138     -40.0983 
2.32200e-05      6.45208      52.8129 
-1.84418e-05      11.5181     -34.9584 
2.29320e-05      4.23147      64.5301 
4.47337e-05      5.30824      167.376 
-1.18244e-05      5.40856      99.1487 
0.000112126      12.5477      52.8382 
1.17957e-05      7.44198      136.745 
-0.000109579      7.32346     -150.916 
-1.16645e-05      5.54932      93.3023 
1.15954e-05      8.47009      33.5422 
-2.89791e-05      6.30104      96.5647 
2.19940e-05      13.2000     -43.3438 
-6.51053e-05      6.84837      95.1927 
9.21838e-05      11.8826      145.562 
-5.42868e-05      10.1634      97.3470 
4.29155e-05      11.1439     -143.171 
-0.000121807      9.51007     -94.5846 
-1.13393e-05      14.2420      135.512 
4.25807e-05      10.0302     -121.631 
-1.12692e-05      11.8435     -147.061 
3.20136e-05      7.45675      136.851 
-5.06218e-05      7.89134      135.408 
-1.11691e-05      10.4098     -13.5574 
-7.02416e-05      10.8602     -128.497 
1.11077e-05      9.80096      23.3224 
6.17193e-05      8.20573      46.5822 
-2.17198e-05      12.5369      133.060 
1.10420e-05      7.45574     -159.424 
-4.17885e-05      10.5827     -109.428 
1.09353e-05      9.15042      116.342 
-2.13090e-05      8.01287     -127.699 
4.02641e-05      9.06771      127.022 
1.08351e-05      5.88820      51.0676 
-3.01045e-05      5.68321      92.0203 
-4.04670e-05      9.70774     -140.769 
-3.14171e-05      2.56308      73.6767 
-1.07987e-05      14.2557      135.456 
-5.91401e-05      3.10633     -28.8745 
1.07705e-05      10.1352     -86.8338 
6.82449e-05      8.39169     -27.8483 
1.07230e-05      4.20480      64.6514 
-6.59630e-05      7.61470     -47.3442 
-4.03383e-05      4.68759      67.1579 
8.10651e-05      13.5198     -134.879 
-3.96818e-05      4.43427     -166.963 
-2.05502e-05      6.69871      13.9958 
4.85520e-05      7.79029      92.9429 
0.000179084      10.1554     -86.8401 
1.04822e-05      9.78236      23.3694 
2.00735e-05      10.7739     -28.3732 
-6.56727e-05      5.94883     -39.9546 
-8.06579e-05      9.58027     -179.762 
-4.68355e-05      3.24721     -152.488 
-2.02452e-05      14.2699      135.398 
-1.03464e-05      6.66523      169.800 
4.91472e-05      5.32801      167.424 
1.03113e-05      12.6665      49.4182 
-6.33643e-05      5.82632     -125.221 
-9.37365e-05      10.3063     -111.636 
0.000136293      11.1282     -143.111 
-9.47262e-05      11.5387     -131.063 
1.01960e-05      7.48592     -159.676 
1.01487e-05      7.00650     -34.4134 
-2.89522e-05      12.5507      133.127 
2.93396e-05      10.7397      59.5649 
1.00735e-05      5.45951      135.891 
1.00574e-05      6.38867     -158.900 
2.87498e-05      9.74150     -148.433 
-4.74725e-05      7.25964      155.766 
1.96083e-05      4.19617      64.9014 
-9.96841e-06      11.8605     -147.114 
1.90670e-05      10.8779     -133.731 
-2.84387e-05      7.75460      158.199 
9.81205e-06      6.02965     -146.363 
9.77890e-06      8.45384      33.6153 
0.000184765      12.9073      49.3994 
-2.49672e-05      9.06800     -20.3935 
9.72315e-06      9.16791      116.288 
8.08557e-05      9.62367     -47.1866 
-9.71479e-06      7.62844     -47.2323 
-9.69716e-06      10.4051     -13.4490 
-8.92651e-05      13.5672     -130.997 
-9.72352e-06      2.54437      73.5532 
-9.68573e-06      9.20070     -42.5343 
-1.90520e-05      14.2841      135.341 
3.57815e-05      5.44543      136.044 
-2.65318e-05      6.28166      96.5851 
-9.53461e-06      11.2325      24.5105 
-9.51165e-06      11.8775     -147.167 
9.50231e-06      7.51625     -159.926 
-0.000115767      6.70364      14.1638 
-0.000106646      9.86911     -110.896 
-9.42595e-06      4.26417      52.4283 
-3.53441e-05      2.53870      73.9918 
-2.66092e-05      12.5927      133.196 
4.39683e-05      8.19182      46.6851 
9.36554e-06      6.37712     -158.664 
-9.27633e-06      13.1838      133.771 
1.83455e-05      4.04187     -88.2978 
-3.51248e-05      7.74710      158.338 
-2.58729e-05      6.93522      167.845 
9.22929e-06      12.5359      52.9092 
2.59372e-05      7.48484      136.840 
-9.20332e-06      11.9219     -147.189 
-9.17911e-06      8.80559      92.0804 
-9.18972e-06      6.62173      94.6801 
-2.50066e-05      4.32663     -72.2375 
-4.14504e-05      8.77253     -18.8906 
-1.80559e-05      11.8519      135.410 
3.47779e-05      10.7496      59.4752 
-1.72707e-05      5.37635     -52.4056 
-2.62015e-05      10.5760     -109.325 
-9.04250e-06      14.1323      136.433 
3.35418e-05      5.33246      167.211 
5.15571e-05      11.8659      145.507 
-4.26298e-05      6.62011      94.5053 
4.87192e-05      3.12461     -125.618 
-2.53577e-05      5.15302      98.2552 
-4.20254e-05      7.95598     -39.4928 
8.93603e-06      10.0404     -121.725 
8.89322e-06      8.40117     -27.9704 
8.88861e-06      9.53821     -150.480 
2.51534e-05      9.14145      116.229 
4.14628e-05      4.04132     -88.5849 
-2.57922e-05      2.97501     -106.003 
0.000133196      12.5321      52.7843 
8.82748e-06      4.18761      65.1524 
1.68687e-05      9.09608      127.047 
-8.75476e-06      11.9389     -147.242 
-8.72932e-06      4.25185      52.6447 
-7.78733e-05      10.8476     -128.413 
-8.67629e-06      14.2977      135.170 
2.48941e-05      10.1699     -121.409 
-0.000157433      13.2287     -130.094 
-2.51066e-05      7.87713      135.513 
-3.36683e-05      14.1183      136.492 
-8.62981e-06      4.45401     -167.022 
1.68791e-05      7.54768     -160.171 
8.58804e-06      9.42999      31.7347 
-5.33216e-05      9.38198      178.776 
-3.23254e-05      6.95503      167.880 
-5.56893e-05      9.85691     -3.37363 
1.66414e-05      8.42822     -28.0230 
-8.50645e-06      2.86056      30.6957 
1.66633e-05      7.76995      163.245 
8.45826e-06      6.36540     -158.434 
-8.43370e-06      11.9553     -147.292 
-1.64312e-05      7.25165      155.907 
-3.10942e-05      9.18633     -42.6165 
8.37966e-06      4.51066     -120.656 
-8.38280e-06      11.8658      135.477 
8.37183e-06      10.6006     -27.5319 
3.11997e-05      7.78927      92.7940 
8.33947e-06      10.8919     -133.808 
-6.86718e-05      5.92029     -39.9302 
1.62979e-05      10.9071     -61.8835 
7.89256e-05      7.22848      123.032 
-3.11311e-05      5.84686     -171.342 
-6.05274e-05      7.76593      158.393 
6.22216e-05      10.7670      59.5300 
-1.62059e-05      10.5696     -109.225 
8.13224e-06      12.6443     -126.382 
-1.58126e-05      10.3138     -111.740 
-6.55197e-05      8.75337     -18.9335 
-1.60071e-05      11.9724     -147.345 
-4.43499e-05      12.2547      133.015 
0.000108247      9.63694     -47.1015 
4.61800e-05      7.81158     -86.9163 
5.03554e-05      8.17845      46.7846 
-4.99206e-05      9.70549     -140.603 
3.09752e-05      11.8498      145.454 
-4.65506e-05      13.5525     -131.051 
4.33840e-05      11.6924      119.062 
5.94166e-05      3.32839     -85.8628 
-7.99156e-06      2.95071     -105.729 
3.77108e-05      8.46518     -28.2007 
1.50833e-05      5.19216     -43.2842 
7.98089e-06      10.6210     -45.5324 
-7.97334e-06      11.8795      135.409 
7.94250e-06      11.9829     -125.627 
-2.27732e-05      9.46893     -160.761 
7.93652e-06      9.45725      31.7770 
-5.89854e-05      6.61855      94.3304 
-3.82462e-05      14.1049      136.550 
-7.93400e-06      12.6480      133.334 
3.80326e-05      9.10989      76.5441 
-1.53671e-05      3.22926     -152.321 
2.25179e-05      1.60293     -93.5696 
1.54169e-05      8.43697      33.6915 
2.30638e-05      7.56604     -160.221 
7.87165e-06      10.0333      118.710 
-5.83669e-05      10.5504     -109.261 
-7.80034e-06      3.12343     -28.7016 
5.28262e-05      12.9741      43.3150 
1.49936e-05      10.1767     -121.252 
2.27525e-05      10.8976     -61.9774 
2.28631e-05      12.6208     -126.236 
-7.76682e-06      2.96949     -105.627 
-5.13264e-05      10.2143      136.587 
3.62918e-05      10.6068     -45.6105 
7.70352e-06      11.2924      41.4818 
-0.000101198      8.13250     -102.496 
-1.51023e-05      11.9894     -147.397 
3.69650e-05      13.7614     -134.233 
-2.18264e-05      11.5169     -55.3967 
-2.23545e-05      7.92852     -39.4737 
2.23299e-05      4.44369      177.677 
-2.23621e-05      13.2540      133.839 
7.55878e-06      13.7759     -134.175 
4.30604e-05      7.41176      43.9089 
1.47266e-05      4.02106     -88.5778 
7.53962e-06      5.46003      136.192 
7.52657e-06      9.72424     -148.370 
5.06041e-05      9.40942     -116.510 
-7.50565e-06      6.28393      121.464 
-9.11127e-05      13.5653     -131.113 
3.59473e-05      3.37187      4.76152 
7.12548e-05      10.2945      15.0877 
-1.46443e-05      14.2977      135.055 
5.71062e-05      10.7845      59.5846 
-7.78370e-05      13.2947      45.8530 
2.12269e-05      9.12509      76.6928 
5.71347e-05      12.9359      49.3897 
3.53919e-05      10.6306     -32.5537 
7.35323e-06      12.6088     -126.162 
-7.32672e-06      7.90718      111.828 
7.30825e-06      12.9205      49.3312 
-1.43156e-05      9.87713     -3.36672 
2.77037e-05      7.59739     -160.468 
6.94203e-05      12.9602      43.2498 
3.55001e-05      7.81266     -86.7735 
-3.40012e-05      13.4787     -41.2102 
-7.27141e-06      11.4973     -130.980 
1.44680e-05      11.8220      145.476 
2.10662e-05      5.84934     -7.46690 
-2.78000e-05      9.48032      52.8879 
-4.13719e-05      7.08680      174.982 
2.80771e-05      10.8881     -62.0715 
1.43349e-05      12.6018     -125.962 
1.43207e-05      10.1566     -86.7260 
1.40545e-05      8.49160     -28.2545 
-1.42674e-05      13.2821      133.839 
6.27284e-05      13.7755     -134.294 
1.41513e-05      1.22794      52.9480 
7.89557e-05      12.4113     -34.8950 
-3.51124e-05      11.5106     -131.056 
3.43951e-05      8.95664     -36.2804 
-4.79691e-05      14.0910      136.610 
-3.47039e-05      9.88804     -110.854 
7.15150e-06      7.58511     -160.273 
-1.41468e-05      12.0059     -147.447 
-2.72721e-05      9.44980     -160.720 
-2.78629e-05      9.56012     -179.640 
-1.40559e-05      5.82982     -171.122 
-7.07837e-06      9.48256      41.1531 
6.19778e-05      11.4574      133.867 
-1.40336e-05      4.30734     -72.1553 
1.36198e-05      3.12984     -125.111 
-2.07412e-05      8.84031      151.928 
2.74866e-05      11.8054      145.420 
1.38127e-05      11.6395      149.999 
-2.04597e-05      7.60149     -47.4524 
-2.05827e-05      13.2962      133.781 
6.96758e-06      11.3076      41.4138 
7.00023e-06      11.9319      126.755 
-6.05790e-05      14.3114      135.000 
2.74735e-05      10.2398     -90.0000 
1.38368e-05      9.12960      76.5737 
-6.95554e-06      5.42856      99.1147 
2.06326e-05      12.5899     -125.887 
-1.36963e-05      9.17143     -42.7022 
1.37287e-05      13.5341     -134.939 
4.69604e-05      12.5444      52.7106 
1.37239e-05      9.42756     -116.455 
-2.04241e-05      7.57201      53.1619 
4.04736e-05      10.1940     -121.193 
-1.37914e-05      13.2156     -130.027 
-2.72972e-05      12.0230     -147.499 
4.70438e-05      9.50267      165.494 
2.03318e-05      7.76904      92.8013 
6.71561e-05      12.9491      49.3216 
6.90334e-06      10.4736     -26.4182 
-3.35884e-05      6.59765      94.1743 
1.34572e-05      1.60432     -94.2918 
6.88362e-06      7.51445      137.052 
-6.87392e-06      9.77632      93.2825 
-6.87791e-06      4.24004      52.8543 
3.35996e-05      7.83330     -86.6335 
-6.86200e-06      9.81424      100.806 
2.68101e-05      9.41855     -116.345 
-8.66279e-05      13.2811      45.9134 
-6.67311e-05      14.0910     -46.6097 
-6.84284e-06      6.68954      14.3667 
-6.84134e-06      11.5653     -131.215 
5.99996e-05      10.2810      15.2250 
-1.35640e-05      7.56032      53.2802 
-3.34678e-05      10.5438     -109.157 
2.67780e-05      10.8013      59.6370 
-6.79424e-06      2.43111     -74.2392 
-1.35543e-05      11.5916     -131.362 
6.76831e-06      1.23267      54.2393 
-6.77055e-06      9.17704      6.38003 
3.32347e-05      11.1242     -142.965 
-2.66893e-05      6.87486     -108.486 
1.33219e-05      12.1016      32.3775 
-6.75691e-06      6.61710      94.1620 
5.31471e-05      13.7752     -134.413 
1.33713e-05      9.47447      31.7124 
-6.72820e-06      13.3249      133.784 
6.73751e-06      3.39131      4.73416 
-6.72073e-06      12.2686      133.084 
1.33667e-05      3.75088      47.3755 
1.33738e-05      12.5831     -125.686 
-1.98519e-05      9.79434      100.828 
-6.70813e-06      6.97895      167.759 
3.31136e-05      10.2398     -89.8866 
-6.68935e-06      8.46528     -100.620 
3.31297e-05      8.70732     -35.3706 
-3.30871e-05      9.86190     -110.786 
1.32887e-05      8.75194      119.730 
-1.32949e-05      9.53986     -179.639 
6.67652e-06      11.7893      145.366 
2.66016e-05      11.4715      133.799 
-1.32611e-05      10.8309     -119.785 
6.67107e-06      7.54254      137.040 
-1.32864e-05      2.43648     -73.7977 
-1.99334e-05      11.6179     -131.510 
1.98820e-05      13.5484     -135.000 
6.63817e-06      10.8789     -62.1623 
-1.32032e-05      12.0401     -147.551 
-1.32539e-05      13.3395      133.724 
6.62317e-06      1.22094      55.0109 
6.61676e-06      3.50554     -86.7236 
-6.61911e-06      12.2261      133.010 
-6.63742e-06      9.45194      52.9118 
1.31861e-05      8.05794      174.448 
-6.60998e-06      2.95903     -104.886 
-1.32215e-05      6.43266      39.8321 
-1.31890e-05      14.0771      136.670 
1.31609e-05      11.7611      145.391 
1.31967e-05      11.4862      133.729 
6.58894e-06      10.5793     -45.6121 
6.59594e-06      11.6220      149.949 
-6.58172e-06      13.2417     -130.161 
6.57825e-06      5.84674     -7.27004 
-6.56562e-06      6.09572     -44.6010 
6.56128e-06      3.75217      47.8126 
-6.54563e-06      8.48446     -100.595 
-6.56263e-06      11.6313     -131.584 
6.56122e-06      11.6830      118.978 
6.56515e-06      11.0386     -22.4770 
-6.55263e-06      13.4111      133.551 
6.56622e-06      10.2006     -121.043 
-6.56016e-06      2.44221     -73.3412 
6.54437e-06      7.42530      44.0173 
-6.53837e-06      11.0138     -138.903 
1.96608e-05      4.53107     -121.089 
-2.16039e-05      12.1296      42.6609 
2.14733e-05      10.5219     -103.297 
3.47290e-05      12.6413     -50.9726 
-3.45458e-05      11.2409      24.6044 
1.37836e-05      13.1861     -43.2798 
-7.11967e-06      9.52717     -94.3364 
-1.35376e-05      6.88131     -108.646 
-2.03191e-05      7.87922      119.165 
2.69297e-05      10.3846      100.206 
-2.03922e-05      9.12847     -42.7781 
1.38546e-05      11.3356      41.4253 
2.02067e-05      10.6743      69.8338 
-1.35852e-05      13.2113      133.773 
-1.32835e-05      5.86615     -171.370 
1.32104e-05      9.58801     -135.000 
1.33201e-05      7.76750      72.3125 
-6.75070e-06      6.86840     -108.855 
2.61483e-05      12.4390     -34.9153 
1.31128e-05      10.5846     -75.3352 
-6.66723e-06      7.30576     -150.839 
1.30858e-05      7.42637      43.8005 
6.61263e-06      10.6240     -32.7012 
-1.31663e-05      9.09406     -20.4686 
-1.30038e-05      6.28393      96.7618 
6.57346e-06      8.76163      119.841 
6.55775e-06      9.49172      31.6482 
6.55750e-06      11.4463     -43.2308 
-6.51656e-06      13.2400      133.776 
-6.49548e-06      9.08883      18.8732 
1.28596e-05      11.2255      155.810 
6.45416e-06      9.68387     -148.082 
-6.41774e-06      5.45180      99.2912 
6.41890e-06      7.81381     -77.8818 
6.43470e-06      10.5805      119.812 
6.41949e-06      10.9323      44.6301 
-6.41711e-06      10.3941     -47.9642 
-6.38610e-06      8.45804     -100.355 
6.38777e-06      11.4321     -43.2978 
! Tentative model.
! Flux (Jy) Radius (mas)  Theta (deg)  Major FWHM (mas)  Axial ratio   Phi (deg) T \
! Freq (Hz)     SpecIndex
6.85267e-06      12.4392     -34.9166 
