! Center RA: 12 21 31.69052,  Dec: +28 13 58.50011 (2000.0)
! Established model.
! Flux (Jy) Radius (mas)  Theta (deg)  Major FWHM (mas)  Axial ratio   Phi (deg) T \
! Freq (Hz)     SpecIndex
 0.0779976      0.00000      0.00000 
 0.0184499    0.0202604     -90.0000 
0.00162770    0.0202604      0.00000 
 0.0162428    0.0286526      45.0000 
0.00869497    0.0446338     -116.996 
 0.0690867    0.0633577     -108.650 
 0.0197258    0.0446338      63.0042 
 0.0376862    0.0562440      45.0000 
0.00924974    0.0720098      56.4755 
 0.0525055    0.0633577      71.3505 
 0.0154075    0.0896014     -116.350 
 0.0382677    0.0828082     -104.162 
0.000817757     0.164706      103.973 
0.00596948     0.184432      102.453 
0.00327754    0.0446338      26.9958 
0.00306585    0.0600310     -90.0000 
0.00135274    0.0286526     -45.0000 
0.00224744     0.209153      106.680 
0.000293649    0.0397705      0.00000 
0.000139297    0.0397705     -90.0000 
0.000128962     0.204262      101.227 
0.00182240     0.223431      100.253 
0.000901096     0.145849      105.824 
0.000358684     0.101837      101.476 
0.00244070     0.126477      108.327 
0.00223797     0.243395      99.4042 
0.00172118     0.262662      98.7088 
0.00181996     0.152624      113.162 
0.00257299    0.0633577      18.6495 
0.000578413     0.417588      106.709 
0.00230612     0.107434     -111.727 
0.000944604     0.423858      109.333 
0.000116892     0.247514      104.036 
0.00114232     0.266484      103.019 
0.00115375     0.443026      108.466 
0.000535343     0.742542      104.036 
0.000378674     0.170734      110.586 
0.00102987     0.282706      98.0871 
0.000177467     0.722903      104.426 
4.39833e-05    0.0600310      0.00000 
0.00116840     0.161111      97.2243 
0.000568398     0.141777      98.2159 
0.000745194     0.776764      101.874 
0.000324475     0.121759      99.5784 
0.000701208     0.523472      96.5851 
0.000434650    0.0998015      90.0000 
0.000465908     0.635505      102.756 
0.000670544     0.503350      96.8496 
0.000280914     0.286260      102.105 
0.00145348     0.659734      104.020 
0.000136989    0.0802914      90.0000 
0.000505405     0.795867      101.585 
0.000194972     0.466942      99.9013 
7.27868e-05     0.446997      100.348 
0.000373233     0.815725      101.300 
0.000197181     0.427819      100.817 
0.000146111     0.302778      97.5477 
0.000613485     0.116465     -121.027 
0.000162217     0.181229      96.4188 
0.000178784     0.407936      101.351 
6.09829e-05     0.835602      101.027 
0.000154010     0.322129      97.0919 
0.000225469     0.839713      102.384 
5.07144e-05     0.201375      95.7743 
0.000519280     0.431906      103.360 
0.000118874     0.342244      96.6731 
0.000165500     0.543603      96.3402 
0.000268275     0.858779      102.105 
0.000603321      2.05086      113.573 
0.000537710      1.11816      116.548 
2.35069e-05     0.220795      95.2649 
0.000404444      1.25276      73.2909 
0.000651256      3.27521      121.261 
0.000258811     0.878599      101.828 
0.000164201      1.18958      109.647 
7.99143e-05      2.03299      113.793 
5.97714e-05     0.200353      90.0000 
0.000564881     0.640096      104.460 
0.000729097      1.80914      103.431 
0.000120385     0.521537      94.3734 
7.35272e-05     0.180093      90.0000 
3.63920e-05     0.201375      84.2257 
0.000266894      1.19654      110.560 
7.25529e-05      2.04094      114.294 
0.000281818    0.0720098      33.5245 
0.000335106      2.05874      114.071 
5.11657e-05     0.902718      102.823 
5.08018e-05     0.412220      104.011 
9.89156e-05     0.181229      83.5812 
1.72144e-05      3.25855      121.439 
0.000325996      3.21691      123.594 
0.000102139     0.204262      78.7726 
0.000236819     0.437032      105.945 
3.23714e-05     0.295127      118.390 
0.000124102      2.40686      118.267 
9.27661e-05     0.898439      101.563 
0.000102342     0.304887      121.617 
0.000117215      2.00385      116.056 
0.000278586      4.19950      119.373 
6.71892e-05     0.520413      92.2312 
0.000238453      1.25851      72.4401 
0.000275573      2.39768      117.856 
0.000178885     0.161111      82.7757 
0.000163727      1.12736      117.469 
0.000132191     0.921752      102.554 
0.000399212     0.126477     -108.327 
4.00378e-05     0.340529      93.4109 
0.000182169      2.06945      113.349 
1.35950e-05      2.01249      116.555 
0.000114398      1.99439      116.816 
0.000456636     0.300155      126.870 
0.000342269    0.0828082      14.1622 
0.000272902    0.0896014      26.3505 
0.000102753      1.20353      111.430 
0.000148982      4.18996      119.140 
0.000137097      3.30305      121.379 
0.000255687      4.43760      115.061 
9.34551e-05      3.20068      123.787 
7.09235e-05      2.07726      113.843 
3.54396e-05      1.23513      65.1009 
3.52796e-05     0.520018      90.0000 
1.18870e-05     0.945882      103.441 
7.83556e-05      2.00361      117.333 
0.000391608      1.88336      112.488 
7.67192e-05     0.941538      102.286 
0.000140862      1.24380      64.2543 
7.27274e-05     0.141777      81.7841 
0.000313728      2.09580      113.619 
3.25560e-05     0.520413      87.7688 
0.000264718      3.21199      124.087 
1.08709e-05      3.03276      105.690 
5.23833e-05      3.02735      105.321 
4.86913e-05     0.874671      100.529 
0.000149855      3.41151      123.043 
4.03955e-05      1.18112      118.291 
1.04917e-05     0.339925      90.0000 
1.04136e-05      1.13685      118.375 
0.000122427      2.01300      117.845 
0.000181186      4.21716      119.238 
6.69472e-05     0.521537      85.6266 
4.92622e-05      3.02206      104.951 
5.43726e-05     0.965599      103.161 
0.000132480      4.42937      114.833 
9.64058e-06      3.05523      107.127 
4.61663e-05      1.19900      117.832 
5.49774e-05      3.01708      104.593 
6.78184e-05     0.134233      63.4349 
9.17924e-06      3.04885      107.962 
0.000151905     0.449587      110.825 
9.01258e-05      1.15476      104.027 
8.18430e-05      2.38828      117.427 
1.76715e-05      1.19085      119.149 
3.45032e-05      3.02298      108.916 
0.000237546      4.59786      116.343 
0.000132015      1.25240      63.4503 
8.74886e-06      3.01204      104.220 
0.000134745      1.23208      103.131 
0.000127606     0.360755      86.7805 
0.000214040     0.523472      83.4149 
5.83286e-05      2.98837      103.949 
0.000178710     0.664933      105.714 
8.57205e-06      1.21108      112.322 
3.31005e-05      1.20859      118.681 
2.41325e-05     0.851327      99.4872 
1.61345e-05      1.11907      118.868 
5.62808e-05      2.54547      120.193 
2.46491e-05      2.00437      118.609 
0.000154244      3.02961      109.279 
0.000254848      1.80454      102.805 
4.71003e-05      3.42219      123.317 
0.000260463     0.961344      102.029 
4.59421e-05      1.21844      119.517 
8.28756e-05      2.98355      103.571 
0.000259592      2.01415      119.115 
1.53714e-05      4.41168      114.939 
5.73894e-05      2.10400      114.124 
0.000441729      3.22553      108.431 
0.000113568     0.144435      56.2274 
0.000119827      4.40317      114.700 
0.000228947      3.45025      123.414 
4.80035e-05      4.13427      118.300 
7.28107e-06     0.832090      99.7087 
9.31657e-05      1.12862      119.735 
5.45089e-05      1.22817      120.309 
6.54674e-05      2.12182      113.909 
0.000260085      2.97886      103.193 
0.000144605      2.37902      116.993 
0.000151870      4.61640      115.124 
0.000143561     0.121759     -99.5784 
4.47293e-05      3.22297      124.375 
9.41462e-05      1.26158      62.6272 
6.16547e-05      3.23109      121.331 
3.21877e-05      2.95472      102.914 
1.28929e-05     0.184676      130.551 
5.67773e-05      1.99852      108.068 
0.000198371      2.92656      100.235 
4.71122e-05      1.23852      121.119 
5.32156e-05      1.21892      113.203 
9.61212e-05     0.457182      113.199 
4.91363e-05      4.12470      118.052 
3.90934e-05      1.24709      74.1825 
0.000124569     0.198446      135.000 
5.27648e-05      2.13012      114.407 
3.38178e-05      3.23445      124.671 
4.37017e-05      4.39474      114.460 
4.40802e-05      2.11236      114.626 
7.46344e-05      4.58844      116.674 
0.000135837      3.03611      109.626 
8.39407e-05      1.24911      121.914 
5.77103e-05      3.24602      124.965 
1.47363e-05     0.781185      103.329 
0.000224841      4.35169      113.851 
0.000154304      1.67435      97.5454 
9.84676e-05      1.27103      61.8161 
0.000143183     0.169793     -135.000 
8.65410e-05     0.156126      50.2649 
2.36130e-05      4.24475      119.343 
1.41268e-05      1.24172      75.0820 
0.000124762     0.101837      11.4755 
0.000117848      4.62622      114.790 
4.64389e-06      1.13880      120.621 
6.74863e-05     0.284207      129.321 
7.04472e-05      1.20439      125.542 
0.000157287      4.53791      118.710 
6.13207e-05      3.21381      121.519 
0.000111931      4.25191      118.976 
3.28687e-05      2.56235      119.974 
4.15649e-05      4.11556      117.813 
1.63210e-05     0.684458      105.255 
8.67272e-06      1.23684      75.9553 
7.91621e-06     0.786103      104.766 
5.04328e-05      3.25724      125.246 
9.47844e-05      2.12057      115.105 
6.39946e-05     0.438632      114.241 
7.95592e-06     0.871317      99.2676 
4.16179e-06      1.23208      76.8694 
1.51300e-05      1.82430      102.664 
5.60619e-05      4.59757      116.900 
6.77573e-05     0.120062     -90.0000 
8.01391e-06      1.22764      77.7903 
4.45154e-05      1.81997      102.042 
7.48629e-05      2.01694      120.372 
2.96031e-05      1.43161      65.2081 
1.50429e-05      1.22366      78.6832 
3.26982e-05      2.01780      107.889 
4.13831e-05     0.543603      83.6598 
7.31202e-05      4.61808      114.570 
2.05290e-05      1.21985      79.6163 
2.46955e-05      1.22674      114.041 
5.78194e-05      1.28036      61.0465 
6.34757e-05      1.43990      64.5033 
5.11746e-05      3.26897      125.536 
2.44824e-05      3.43336      123.600 
2.08515e-05      1.25953      122.668 
2.93461e-05     0.465536      115.491 
3.49423e-05      1.21648      80.5202 
5.67785e-06     0.791300      106.132 
2.25075e-05     0.169793      45.0000 
1.63716e-05      2.12924      115.599 
8.09932e-06     0.121759     -80.4216 
5.30543e-06      3.46145      123.694 
-0.000340964      4.62007      142.384 
0.000401411      9.80514      162.676 
0.000274553      12.2697      39.1124 
0.000740695      9.37880      112.574 
0.000159034      8.08039      90.4257 
0.000348578      6.27676     -52.5095 
0.000227727      7.51627     -164.410 
0.000216748      8.90932     -87.4270 
-0.000335204      11.6022     -133.184 
-0.000331412      3.98939      35.2057 
0.000237654      8.16223      46.2926 
-0.000234332      9.91902     -131.402 
0.000225442      4.14226     -178.059 
0.000257718      9.88238     -91.1617 
0.000331089      9.75872     -110.517 
-0.000222646      3.98387      122.493 
0.000257918      5.60597     -84.4695 
0.000221909      8.92558      87.9475 
-0.000225423      6.16942     -141.980 
0.000216256      9.45803      35.7052 
-0.000306326      9.44261     -16.3626 
0.000192739      7.49748     -164.370 
0.000245433      12.2848      39.0550 
-6.84548e-05      5.92550      32.4584 
-0.000126086      9.45194      53.5195 
0.000218382      8.90861     -153.031 
-0.000156651      10.6756      71.4288 
-0.000151190      10.9564     -55.4098 
0.000152938      8.10694      29.7258 
6.55927e-05      12.5246     -132.863 
0.000159165      13.4953     -138.966 
0.000297744      9.25861     -68.5901 
0.000179293      5.04039     -89.7697 
-0.000182318      5.91957      32.7191 
-0.000179616      11.0554     -35.5024 
0.000233354      6.37818     -62.5516 
-0.000174536      7.82172      145.946 
5.98347e-05      7.74115      18.0591 
-0.000201322      9.84776     -148.536 
-9.02235e-05      7.99992     -24.8367 
-0.000173100      9.41765     -118.961 
8.61637e-05      11.5412      40.9241 
0.000116904      10.7565     -121.001 
8.75967e-05      8.91025     -87.2969 
-8.58923e-05      10.0060     -148.153 
-0.000118010      9.93653     -162.186 
-8.83487e-05      10.9202      39.0539 
0.000112746      12.5384     -132.931 
-3.04975e-05      6.73498     -10.6063 
8.65687e-05      7.49509      75.0010 
0.000140395      13.5086     -138.901 
-5.84235e-05      13.0998      131.968 
5.75724e-05      12.9005     -136.256 
-8.53396e-05      8.24620      87.7784 
-5.76712e-05      11.7142      59.7557 
-8.36938e-05      6.76766      34.1588 
2.94694e-05      6.89851     -40.0625 
2.93485e-05      10.6744     -111.083 
-5.71148e-05      6.73142     -10.4431 
-8.24633e-05      7.68665     -85.2234 
8.22294e-05      6.27899      116.075 
8.19203e-05      8.57073     -100.758 
-8.14103e-05      9.79796     -17.5857 
-5.54974e-05      5.58591      2.66407 
8.24326e-05      2.00990      121.162 
0.000108594      8.96542     -29.5367 
-8.20612e-05      8.09042     -131.492 
5.49422e-05      7.14617     -105.088 
5.46963e-05      10.6933     -111.044 
2.80337e-05      1.76885     -42.7135 
-8.09752e-05      5.26808      79.5032 
-2.77694e-05      8.40408     -126.680 
-5.42101e-05      13.1459     -130.743 
5.44941e-05      8.72138     -89.0781 
-5.39336e-05      9.49992     -89.8778 
2.75686e-05      6.88359     -40.1670 
8.04453e-05      11.0752      23.9739 
-2.74173e-05      7.27373     -169.863 
2.71328e-05      7.57469     -98.0466 
-5.29955e-05      7.20415     -14.9641 
-2.71061e-05     0.835602      78.9726 
-2.70118e-05      11.8576      31.4127 
-2.68819e-05      9.95510     -162.221 
2.66990e-05      7.50296     -164.221 
-2.66823e-05      3.80882      93.9087 
-2.64900e-05     0.788772     -120.468 
-2.63647e-05      12.8405      48.7886 
-2.63033e-05      8.24701      87.6377 
-2.62788e-05      10.1349      41.0794 
2.61647e-05      10.6369     -41.8745 
-4.87510e-05      11.8471      31.3291 
-2.61138e-05      5.93600      32.6173 
2.60760e-05      10.5292     -124.477 
2.59005e-05      7.50036      74.8515 
2.59284e-05      11.6086      52.4190 
-0.000366154      4.35582      44.6301 
0.000383145      9.37788      31.2161 
-7.71113e-05      5.00134      64.6653 
0.000242286      8.83165      61.7540 
-9.75990e-05      9.28826     -125.092 
0.000412828      12.7558     -138.814 
0.000160668      12.3335     -134.211 
-0.000215503      13.7373     -43.4064 
-0.000153236      4.37026      44.4435 
-0.000131604      5.81764      30.3554 
-0.000214377      7.42416     -32.2331 
-8.85838e-05      5.36031      52.2734 
-0.000124022      10.0717     -174.189 
-2.38982e-05      9.48864     -41.9259 
-0.000167875      9.53760     -108.205 
0.000127222      10.4477     -32.4128 
-2.35115e-05      6.01350      77.9062 
-2.34696e-05      10.7278     -143.109 
-2.33949e-05      9.48806     -125.130 
-6.70327e-05      8.00111      91.0049 
-8.64245e-05      5.99210      37.4080 
0.000121272      11.5840     -145.269 
-4.50809e-05      12.1063      54.2105 
0.000121733      8.68700      99.0050 
4.38821e-05      5.57622      4.32183 
0.000166980      11.6955     -47.7721 
-6.44366e-05      10.0966     -114.333 
-7.82376e-05      9.47414     -42.0048 
-2.23241e-05      9.28582      120.266 
-0.000307239      11.2760     -139.385 
-9.74592e-05      6.88389      101.736 
0.000184034      4.15063     -64.2966 
4.20713e-05      8.18886     -119.882 
-0.000102828      13.3475      130.563 
-0.000113626      10.6189     -112.362 
4.16978e-05      5.18192     -163.174 
-0.000187558      8.82625     -84.1493 
0.000143299      6.44467     -175.017 
-0.000177940      9.26833      120.329 
4.00786e-05      4.50022     -143.134 
-0.000179717      6.64347     -29.1910 
-9.17702e-05      8.15722     -170.260 
4.07306e-05      11.0113     -50.5249 
-2.11614e-05      6.11687      21.2767 
-3.26412e-05      5.01898      64.7606 
3.86167e-05      5.60838     -143.707 
-2.08778e-05      6.03757      77.7585 
-0.000202657      12.1182      54.1328 
4.00807e-05      7.10267      54.7417 
-0.000143759      13.7495     -132.111 
5.80210e-05      8.73981      48.2472 
9.30828e-05      7.85278      37.8620 
-0.000109546      11.7826     -41.9720 
0.000140709      8.26468      67.2229 
3.84040e-05      12.3475     -134.148 
9.28621e-05      11.1161      36.8057 
0.000156602      6.35502      165.042 
-9.76123e-05      7.98160      91.0074 
6.57324e-05      7.22915     -136.455 
-2.00539e-05      8.88645     -108.231 
1.98650e-05      5.59206     -143.584 
3.90644e-05      3.61515      65.1318 
-1.97827e-05      13.7510     -131.992 
-1.96748e-05      8.68799     -126.766 
-0.000251601      6.67038      106.368 
1.96382e-05      11.4673     -118.890 
1.95468e-05      11.2526     -137.375 
3.73811e-05      7.15066      42.1673 
-0.000102980      1.82042     -125.623 
-5.46515e-05      6.13576      21.2081 
1.92671e-05      3.63466     -134.783 
-3.70412e-05      11.8112     -41.9794 
-3.69536e-05      11.8723      40.5604 
-0.000103199      5.72518     -97.2284 
-0.000352761      10.0526      160.231 
-6.86333e-05      10.0883     -114.228 
7.02541e-05      8.57451      61.2795 
8.43138e-05      7.09099      54.8754 
-0.000138532      8.90683     -92.1872 
-8.55526e-05      8.67237     -126.843 
1.88775e-05      10.2893      79.5842 
-5.23200e-05      6.11944      77.7379 
0.000113917      11.2871     -133.995 
4.66523e-05      6.42281     -175.175 
0.000158489      13.2853     -130.113 
-3.41328e-05      9.92687      12.8050 
-5.03947e-05      6.34640      146.962 
1.85587e-05      5.37427     -8.13123 
-5.08201e-05      5.29920      61.1085 
3.55997e-05      4.96291      31.3203 
0.000261502      11.2571     -149.104 
6.71541e-05      3.62339      64.8519 
3.47122e-05      6.89390     -40.5282 
-1.80693e-05      6.29237      84.1616 
-0.000125142      10.2928      96.8079 
-9.57837e-05      13.7645     -132.055 
-1.78302e-05      10.7083     -142.895 
7.87585e-05      3.62042     -134.555 
8.44414e-05      11.8120     -139.189 
-0.000134268      11.3956     -63.7488 
6.72175e-05      11.5734      49.3463 
1.76121e-05      6.87851     -40.6379 
-1.75629e-05      8.90498     -108.192 
1.74217e-05      11.0178     -121.643 
1.73955e-05      11.2675     -137.445 
1.74014e-05      6.33617      164.996 
-0.000104593      4.38475      44.2581 
3.37578e-05      5.37707     -8.33704 
-7.79748e-05      5.80017      30.4565 
1.72220e-05      11.4964      119.152 
-6.55872e-05      10.0778      160.161 
0.000487595      11.5213      28.9673 
0.000141335      7.58728      39.4377 
3.33196e-05      10.4640      109.889 
9.82093e-05      12.3610     -134.213 
3.29598e-05      4.72617     -173.930 
6.29179e-05      11.1285     -34.6030 
-3.29316e-05      10.5125      67.0441 
1.66784e-05      8.71120      48.2578 
0.000132973      10.7204      50.9061 
0.000141066      13.3418      49.8639 
-0.000119520      13.1668      132.291 
-7.31221e-05      10.8491      138.140 
-0.000227757      9.10903      39.3874 
-5.88002e-05      11.4995      144.487 
-3.06936e-05      8.92851     -110.182 
-1.61201e-05      6.59348      31.8595 
-7.51913e-05      6.15395      21.1423 
-9.64283e-05      9.92062      120.134 
0.000111108      10.4573      109.789 
8.17903e-05      7.83738      37.9496 
4.62305e-05      4.70094     -172.423 
2.96229e-05      11.0720      36.8505 
-1.57411e-05      11.8877      40.4969 
0.000272511      11.7967     -139.124 
-5.94637e-05      13.1745     -130.752 
1.56655e-05      10.8010      147.017 
6.85486e-05      8.98390     -10.2578 
0.000125357      8.80819      174.005 
-0.000130829      11.7961     -42.0452 
4.44041e-05      6.90931     -40.4191 
0.000109847      11.5866      49.2703 
4.16980e-05      7.32044      119.995 
-6.54287e-05      8.68409     -126.946 
0.000316195      10.0418      35.8423 
8.34697e-05      8.98743     -7.03067 
-7.27331e-05      10.5391      66.9857 
1.54894e-05      10.6634     -45.4562 
-5.73167e-05      6.61006      31.7703 
6.79494e-05      9.09666      116.510 
-9.10835e-05      10.6266     -112.463 
1.53453e-05      8.19898     -120.005 
1.53303e-05      10.1885      32.0045 
3.97738e-05      10.7077      50.9903 
-0.000167314     0.804760     -124.861 
6.20663e-05      11.4787      119.201 
-0.000314282      13.5672      139.003 
7.16307e-05      9.78495     -153.541 
0.000189290      8.04166     -91.2832 
5.57034e-05      8.56682      61.1024 
-5.69319e-05      3.74854      9.21531 
-9.31845e-05      11.8644      31.2782 
-5.58463e-05      9.74134      165.251 
-8.48305e-05      12.1296      54.0581 
3.93774e-05      10.6632     -45.3022 
-0.000153768      11.5578     -117.630 
0.000136442      4.72103     -172.456 
-0.000159833      8.48404     -85.6732 
-9.57576e-05      12.4283      132.521 
-0.000170493      12.4823     -37.9729 
-1.45398e-05      12.7576     -50.4702 
-1.44649e-05      9.43867      23.7405 
8.73102e-05      10.1714      32.0650 
-6.76678e-05      11.2695      144.026 
5.53443e-05      10.3969     -120.264 
1.43451e-05      11.4746     -118.754 
-4.13024e-05      10.4342     -148.960 
-6.09099e-05      6.12378      77.5527 
6.51650e-05      9.88637     -85.8214 
-1.42243e-05      13.1804      132.356 
-5.17119e-05      6.66117     -29.1060 
-4.03662e-05      8.86522     -64.4739 
-0.000141515      12.7425     -50.4143 
0.000273023      12.1084     -136.203 
-6.15915e-05      10.1080     -168.936 
5.35937e-05      8.48823      78.5838 
-9.20445e-05      7.45211     -32.2818 
-7.42195e-05      10.0356     -22.3750 
-5.10247e-05      8.99761     -66.0002 
4.91257e-05      8.24600      67.1684 
1.38931e-05      11.5119      61.1177 
2.64679e-05      7.33799      119.916 
3.67081e-05      7.82540      37.8369 
7.38046e-05      9.22718      50.8948 
-8.66322e-05      9.60523     -6.69807 
-0.000175965      8.76207     -158.998 
-0.000149931      12.7203     -127.141 
-1.37368e-05      9.51836     -108.244 
-6.44718e-05      6.17285      21.0745 
4.84224e-05      7.32846     -143.880 
4.92076e-05      11.2851      49.0227 
-5.04077e-05      5.81047      30.6287 
3.75474e-05      11.3158     -133.998 
-2.61227e-05      1.80869     -125.101 
-0.000114855      7.76935     -65.6802 
-0.000124307      9.94747      27.5431 
7.18206e-05      11.1119     -34.6624 
1.34269e-05      10.4483      37.2188 
-2.66865e-05      9.38609      165.816 
-6.28787e-05      8.48254     -85.8097 
-3.68908e-05      9.27820      120.433 
-2.62211e-05      10.0998     -78.5799 
-1.33597e-05      13.3190      42.6255 
-2.49618e-05      11.2629      124.874 
1.32781e-05      10.2906      31.6502 
-1.32636e-05      12.6646     -43.0168 
4.98916e-05      7.73102     -129.332 
-6.23440e-05      10.5726      66.8286 
1.31294e-05      12.8892     -43.3039 
0.000275213      10.6061      31.7424 
0.000145934      13.3002     -130.059 
-5.08338e-05      10.3157     -159.457 
3.66190e-05      8.69019      99.1370 
2.53790e-05      14.3546      134.718 
-2.50064e-05      10.1594      100.779 
3.61130e-05      11.4830     -118.620 
9.49434e-05      11.6363     -140.508 
2.47976e-05      6.92417     -40.3144 
-0.000436973      13.3339      42.5665 
0.000123135      10.3800     -120.319 
-0.000122860      12.6503     -43.0771 
-0.000294754      13.9867      44.9435 
8.31771e-05      3.44122     -91.6619 
1.28770e-05      4.48809     -143.341 
-3.72650e-05      10.4516     -149.017 
-1.28004e-05      5.46216      29.3788 
-1.27587e-05      10.0602     -37.3255 
-1.27470e-05      9.52472     -108.359 
4.70820e-05      11.2436      61.0624 
3.62479e-05      9.05427      158.082 
6.10157e-05      10.0299      35.7485 
0.000134775      11.8661     -49.9226 
-5.83594e-05      7.97161      120.621 
7.82832e-05      6.76320     -178.302 
-9.93710e-05      11.8230      135.273 
-0.000249394      12.1018      54.0766 
4.51110e-05      11.5036      60.9839 
2.38943e-05      7.60331     -97.4056 
-4.72803e-05      9.22605     -163.374 
0.000340927      10.3058     -115.520 
5.71147e-05      9.77628     -153.643 
4.67556e-05      10.2585     -86.5361 
4.40207e-05      12.8750     -43.3634 
4.57773e-05      8.26184      94.1668 
-2.42720e-05      3.72854      9.26517 
-2.23029e-05      3.38354      132.357 
-3.55403e-05      10.4530     -78.4085 
5.57746e-05      10.3078      31.5911 
-1.23075e-05      9.22312     -121.068 
-0.000116554      12.4420      132.590 
6.29415e-05      11.1372     -113.159 
0.000296291      12.7692     -138.745 
-1.22728e-05      8.25318     -163.672 
-2.38010e-05      7.71106     -81.1949 
3.40519e-05      9.14310      79.1576 
-0.000112156      12.7524     -142.519 
4.44972e-05      11.0776     -124.032 
-1.21411e-05      6.77796     -78.4276 
-5.45978e-05      9.40573      165.846 
9.82423e-05      8.51123      78.4810 
-3.52814e-05      5.44517      29.4795 
-1.20609e-05      10.0960     -78.6884 
2.36953e-05      8.74088     -89.0802 
7.70341e-05      13.3056     -41.4036 
4.20662e-05      9.92946     -104.343 
0.000150743      9.74011      174.815 
5.44193e-05      13.1392     -44.3220 
-6.65484e-05      10.3089     -159.559 
1.19376e-05      11.0115      33.1432 
-5.02043e-05      4.41286      44.2697 
3.26914e-05      10.2062     -67.6549 
2.31312e-05      9.91848      40.3389 
-0.000152488      11.2531      143.965 
4.41861e-05      6.31800     -41.6635 
-0.000180358      9.76021      165.280 
5.38453e-05      9.99029     -125.631 
4.45163e-05      12.0943     -136.139 
-1.17195e-05      9.81324      159.976 
-4.44335e-05      6.19176      21.0071 
-4.37180e-05      12.4983     -37.9157 
6.05925e-05      11.0442      36.8271 
-0.000183077      13.9772     -136.507 
5.19822e-05      10.2241      1.56872 
-2.10776e-05      7.96171      91.1503 
-6.39776e-05      11.2010     -156.090 
-4.40038e-05      10.4238     -149.055 
-3.38260e-05      10.5989      66.7748 
2.25683e-05      10.0592      40.4043 
0.000152534      10.3968     -127.575 
-1.14490e-05      9.83280      104.487 
-2.24073e-05      9.68680      31.4897 
-1.13610e-05      10.1327      141.413 
4.35550e-05      11.9162      37.2949 
2.23048e-05      14.3403      134.661 
-2.23411e-05      10.1119     -78.8235 
5.18964e-05      10.8174     -147.073 
-3.20150e-05      8.41819     -79.5956 
-4.26355e-05      9.88816     -126.775 
-4.32234e-05      8.61411     -146.458 
6.82488e-05      7.74388     -129.448 
8.92268e-05      8.21301      80.4706 
-1.12264e-05      8.25481      17.3363 
1.12157e-05      11.1721      39.9894 
1.11706e-05      9.08763      116.396 
-0.000127769      8.31391      3.31150 
-0.000124617      9.61046     -77.9899 
0.000105862      7.58211      43.7168 
-6.16670e-05      12.0899      54.1543 
-2.15365e-05      8.85651     -64.5922 
-2.18140e-05      5.42754      29.5847 
-1.10377e-05      6.22198      20.7081 
-1.10131e-05      5.90630     -97.1963 
-5.13986e-05      12.5262     -37.9292 
5.10378e-05      7.82155     -74.5771 
-8.05960e-05      14.0291      134.538 
3.20118e-05      12.3752     -134.280 
1.09284e-05      8.04214     -91.4276 
2.02223e-05      9.04701      158.197 
0.000236586      13.6629     -134.170 
-1.08827e-05      9.23359     -121.176 
0.000108490      10.0746      40.3296 
-7.91103e-05      8.26500      88.0593 
-2.09997e-05      3.70855      9.31557 
-4.13287e-05      9.81577      4.90732 
-0.000118041      10.6069      66.6742 
-3.96417e-05      7.71407     -81.0517 
1.07508e-05      10.4505      109.684 
-1.07260e-05      10.6154     -112.602 
-6.90075e-05      10.1080     -78.9361 
2.07465e-05      7.05036     -93.0871 
1.07102e-05      10.9945      33.2009 
-4.05387e-05      9.87491     -145.314 
0.000143275      6.76842      95.2542 
0.000142428      14.2980      134.605 
4.00463e-05      11.1851      40.0689 
7.66820e-05      11.0958     -34.7197 
-2.08699e-05      1.79712     -124.573 
-5.18710e-05      13.9442     -44.5356 
2.09159e-05      3.98523     -144.395 
0.000148040      11.1170      149.514 
-8.91069e-05      12.0982      146.601 
-9.39238e-05      9.68015      58.3454 
1.05273e-05      8.19161     -120.199 
-6.79672e-05      5.57066     -125.056 
2.07124e-05      9.98811      75.2674 
-2.05777e-05      9.69740      31.5918 
0.000199830      11.6212     -140.447 
1.04777e-05      6.93963     -40.2062 
0.000115384      13.0365      140.229 
-2.00513e-05      10.4569     -78.3038 
-4.85157e-05      9.20663     -163.337 
-0.000129846      14.3402     -45.2247 
-5.73755e-05      8.22805     -163.768 
-3.94506e-05      7.54465     -12.7093 
-4.45737e-05      10.0335     -164.746 
-3.01760e-05      5.92640     -97.1718 
0.000140442      13.3132     -130.126 
-4.94822e-05      12.8568     -37.3514 
-1.03234e-05      10.0716      138.298 
-0.000145027      10.1669     -100.999 
-3.76385e-05      11.3923      131.440 
-8.67669e-05      12.7583      138.940 
-6.74758e-05      9.00581      78.3427 
-2.83128e-05      5.40993      29.6907 
-1.02693e-05      8.88583     -92.0616 
3.96564e-05      10.1548      32.1234 
-6.70366e-05      11.9330      127.714 
-0.000181085      11.7675     -42.0380 
0.000313382      11.7819     -139.062 
-1.02472e-05      9.60289     -6.57801 
-1.99616e-05      11.6108     -28.9471 
3.02186e-05      13.4050      41.3712 
-1.02434e-05      9.13863      86.3609 
-1.84326e-05      10.2683     -152.884 
-3.98284e-05      12.7684     -142.575 
8.50394e-05      11.9323      37.2360 
-1.98105e-05      10.6232     -112.703 
-6.54204e-05      9.65975     -164.755 
1.99511e-05      3.46147     -91.6522 
6.55666e-05      7.80941      37.9281 
-1.01374e-05      8.12291     -81.7891 
1.99998e-05      7.52544     -120.859 
-0.000325916      13.9586     -44.4773 
-0.000101098      11.6928     -56.2283 
-3.96180e-05      6.54971      9.48930 
1.01134e-05      5.16955     -60.0632 
1.99399e-05      2.85245     -142.407 
-1.00741e-05      12.3316     -132.304 
-0.000154556      10.2591     -152.985 
5.77168e-05      9.82952      113.122 
-9.08473e-05      10.0530     -164.776 
6.35268e-05      8.78575      103.026 
4.83773e-05      12.3612     -134.343 
-0.000123530      9.58351     -6.59137 
-7.41271e-05      11.9455      127.791 
1.95786e-05      10.0176      63.6902 
0.000116270      13.3074     -41.2850 
6.51169e-05      11.2403     -149.053 
-2.86014e-05      8.59786     -146.386 
-1.95092e-05      13.3607      130.629 
-3.81294e-05      10.3519     -60.6106 
-9.88239e-06     0.793353     -123.660 
-5.35826e-05      10.0571      138.224 
5.60110e-05      9.79443     -153.696 
0.000109306      8.80531      74.8588 
6.37154e-05      9.96924      75.2389 
-4.67065e-05      7.76133     -65.8114 
-5.41257e-05      6.02228      151.650 
-2.82170e-05      10.9834     -55.7584 
9.76670e-06      7.82552     -111.122 
-4.54929e-05      10.1268     -74.5375 
9.72810e-05      13.4202      41.3140 
-6.42746e-05      6.56969      9.46017 
1.88416e-05      7.03013     -93.0960 
-0.000133617      10.6388     -25.0232 
-1.75760e-05      9.08052      39.3697 
0.000328387      13.8995      42.6678 
7.23101e-05      2.86793     -142.644 
-0.000131219      12.7845     -142.630 
-2.78705e-05      10.8724      53.6790 
-2.77041e-05      10.4412     -149.113 
-2.79338e-05      10.4256     -34.9998 
1.88098e-05      11.5008     -118.572 
9.59292e-06      12.9372      42.6188 
-3.64961e-05      9.42465      165.875 
-2.82891e-05      9.37811      133.875 
-2.53873e-05      12.7524     -37.4808 
0.000219675      11.1376      154.585 
-1.87396e-05      1.43179     -131.048 
-3.69057e-05      9.08189      1.26409 
3.61272e-05      8.50735      78.6098 
6.24526e-05      10.0896      103.759 
9.51504e-06      11.5410     -45.7034 
-9.51532e-06      11.5714      48.1517 
9.50117e-06      8.10488     -43.8971 
9.46385e-06      7.51506     -120.726 
9.37961e-05      11.3294     -134.069 
-0.000153563      12.7968     -37.4424 
6.86659e-05      11.1056     -37.7565 
0.000193983      10.1377      32.1843 
-9.43657e-06      8.74563      137.037 
-0.000102956      9.06545      39.4479 
9.39469e-06      9.21441      50.9926 
-1.80950e-05      12.3180     -132.235 
-2.73387e-05      9.80783     -114.842 
-1.85721e-05      12.1700      56.2560 
-5.41978e-05      13.1537      132.228 
-0.000201167      12.0813      146.548 
9.56488e-05      10.3899      170.249 
-0.000199537      13.9731     -44.4191 
0.000167972      9.92464     -104.234 
-2.72479e-05      9.31215     -64.1494 
-1.83169e-05      7.83696      128.890 
7.94671e-05      10.2122      34.0649 
-5.23788e-05      10.4610     -78.1952 
2.68622e-05      13.0241      140.295 
-5.78545e-05      9.71149      164.103 
3.56495e-05      11.0729     -116.148 
-1.81823e-05      9.55231      21.6234 
8.80900e-05      13.7762      42.2338 
9.28949e-06      10.0266      63.5864 
9.29772e-06      10.7254      27.4238 
1.83672e-05      9.23682      59.2701 
-0.000316688      14.0154      134.482 
6.98622e-05      11.5265     -45.6330 
1.81353e-05      11.3458     -40.7114 
-5.23007e-05      7.09971      126.871 
5.21973e-05      8.10559     -147.291 
4.46691e-05      13.1384     -44.4446 
-0.000283222      12.4454     -45.2614 
9.15183e-06      9.86616     -85.8129 
9.10743e-06      10.2290      34.0013 
-8.65847e-05      12.8478     -142.845 
1.78659e-05      7.22495      32.1038 
-2.49579e-05      9.39216      133.964 
2.64330e-05      10.7075      27.4737 
0.000101966      12.3754     -134.410 
5.17632e-05      10.3845     -127.487 
-9.88557e-05      8.86616     -64.7666 
-9.05716e-06      7.52562     -12.7420 
2.61469e-05      10.4432      72.4998 
9.03718e-06      10.3487      152.991 
-3.50100e-05      14.2153      44.0312 
-1.69726e-05      12.5103     -37.9862 
-4.35934e-05      12.0287     -138.437 
1.75605e-05      13.3224      135.000 
8.99568e-06      6.84929      96.8774 
4.33282e-05      10.1493      42.5250 
2.63255e-05      6.36916     -47.2918 
8.97793e-06      10.3903     -120.415 
2.60024e-05      10.0001      63.6407 
-8.98984e-06      12.8903     -131.729 
-8.96767e-06      8.03784      166.035 
1.78389e-05      10.2590     -97.9547 
-8.43544e-05      10.0897     -12.2459 
6.04799e-05      13.5542     -46.6735 
2.62138e-05      9.92527      106.023 
0.000199141      10.4180     -168.820 
-0.000197717      12.7878      143.201 
6.78577e-05      9.82159      113.014 
-7.53199e-05      9.37759      134.050 
-3.45442e-05      9.73098      164.135 
-8.38203e-05      11.1977      47.5339 
1.74143e-05      8.87274     -53.8027 
-0.000108062      13.1435     -128.824 
-1.75576e-05      12.8000     -142.683 
7.45193e-05      9.22649      59.3783 
-7.64135e-05      10.3470     -29.7871 
-8.80552e-06      8.76047      137.128 
-9.98132e-05      9.18723     -163.301 
-8.48282e-05      14.0005      45.0000 
9.97952e-05      8.54201     -14.2340 
5.85966e-05      13.9593     -135.754 
-2.59850e-05      12.0433     -138.498 
-2.52120e-05      8.23374     -163.633 
-5.11372e-05      8.01818      166.000 
8.77664e-06      7.60073     -97.2541 
2.58619e-05      6.84689      96.7091 
-9.08940e-05      10.0463     -105.945 
-8.74757e-06      9.08147      1.13630 
-1.72304e-05      6.76726     -20.9531 
-0.000107949      12.8196     -140.699 
8.69951e-06      6.62516     -49.5339 
0.000139136      10.2002      36.3084 
1.70211e-05      5.19722     -59.9812 
0.000163306      10.5623      108.091 
-0.000154348      10.0920     -168.801 
-5.83111e-05      9.65486      94.8731 
8.67265e-06      6.67841      175.708 
-1.70512e-05      10.9888     -55.9052 
-8.66163e-06      8.86584      32.4701 
1.70000e-05      11.6126      49.1216 
0.000179105      11.5872      118.112 
-3.34663e-05      9.53348      21.6683 
-1.70753e-05      5.39299      29.7933 
-2.55482e-05      10.6150      66.5738 
-0.000123658      9.15810      3.63139 
9.13301e-05      13.1244     -44.5043 
-4.15995e-05      1.43015     -132.150 
-1.69269e-05      8.98596      78.3166 
-3.32814e-05      9.87650     -126.684 
-3.36231e-05      8.59539     -107.886 
7.48427e-05      10.2929     -97.7048 
7.39193e-05      11.4886     -31.8360 
-4.21399e-05      13.1551      132.103 
6.60241e-05      6.38901      104.689 
1.71172e-05      8.45622      15.2177 
-1.69549e-05      13.3586      130.752 
-0.000234462      13.3351      42.4481 
4.92116e-05      12.1197     -126.680 
8.56908e-06      7.66480      78.1015 
-8.53777e-06      10.7707     -161.935 
0.000130266      11.0491     -129.712 
-0.000195437      10.6205     -25.0695 
-2.47553e-05      9.44430      165.905 
8.49837e-06      8.28572      61.7639 
-4.96712e-05      8.98596     -78.3166 
0.000106673      14.2699      134.602 
-0.000282035      12.0644      146.495 
-0.000178108      10.0267      160.301 
-8.49626e-06      9.32068     -64.0414 
-8.19756e-05      14.3264     -45.1698 
-2.50737e-05      8.07618      126.640 
-5.71702e-05      10.6210     -127.733 
-1.68138e-05      10.1043     -79.0447 
4.12975e-05      13.3287     -130.069 
3.31656e-05      8.78065      179.476 
-2.46167e-05      9.89158     -145.380 
4.07813e-05      6.38291     -47.1581 
-4.11880e-05      8.48560     -85.5368 
1.63858e-05      11.9484      37.1772 
3.27259e-05      11.0818     -116.242 
-8.43697e-06      10.8844      53.5931 
-2.49494e-05      11.5112      144.405 
2.43251e-05      10.4332     -168.949 
0.000104969      12.2625     -35.0380 
8.40895e-06      9.95484      75.0964 
7.35703e-05      14.0747      43.7903 
-8.42575e-06      12.0585     -138.562 
1.65662e-05      1.22143      140.334 
0.000185396      11.5036      29.0161 
-9.65967e-05      12.7296     -50.4846 
-7.24461e-05      10.1496     -174.344 
5.65442e-05      8.47577      15.1817 
0.000152830      13.7898      42.2961 
-1.65151e-05      8.84938      32.5379 
5.71398e-05      11.0792     -34.7793 
-6.46525e-05      13.9919     -136.565 
-8.34617e-06      9.86911     -69.1039 
1.66438e-05      11.5739      151.177 
-8.31736e-06      12.0736     -138.626 
-2.45927e-05      6.74180     -20.8516 
-6.45733e-05      12.1713     -131.468 
2.46428e-05      13.3869     -138.329 
9.67217e-05      13.5395     -46.6146 
4.88116e-05      10.4493     -112.982 
4.84557e-05      8.25895      61.8237 
4.90161e-05      10.2177      33.9071 
1.65077e-05      6.84456      96.5407 
3.26060e-05      10.5056     -16.3664 
3.27272e-05      9.94965      75.2091 
4.84495e-05      11.2502     -35.6683 
-1.64510e-05      5.24099      31.2662 
8.26357e-06      6.96766     -116.052 
-8.00539e-05      14.3121     -45.2273 
-8.87355e-05      12.5060      144.963 
0.000104684      11.5407     -45.5611 
-2.44337e-05      9.63451     -77.8971 
8.26015e-06      8.21639      80.3312 
-8.09844e-05      7.76836      125.041 
4.03076e-05      2.88406     -142.889 
9.67870e-05      11.5659      151.040 
-5.62369e-05      13.1415      132.038 
2.43967e-05      11.0416      35.0434 
8.23040e-06      8.49211      78.4547 
-4.82675e-05      10.6336      66.6172 
-8.20933e-06      11.8378      124.120 
8.22339e-06      8.25043      98.5045 
0.000160036      11.6337     -140.373 
-4.80598e-05      10.4652     -78.0866 
-3.24173e-05      14.0148      44.9414 
2.43232e-05      10.0091      63.5368 
3.24382e-05      8.78648      74.8256 
-8.19980e-06      10.5296     -110.225 
-2.43321e-05      13.3713      130.815 
2.42580e-05      10.9353     -46.4097 
8.18360e-06      7.76370      74.4593 
-1.62361e-05      12.0883     -138.687 
8.18220e-06      6.95908     -116.272 
-8.15979e-06      8.85786     -64.8808 
-4.01381e-05      10.0479     -164.883 
7.19255e-05      10.2110      76.2905 
-8.14644e-06      9.81753      5.02513 
-5.63779e-05      12.7882     -142.752 
2.41382e-05      7.66885      77.9589 
-3.21853e-05      10.2772     -153.036 
-3.21195e-05      11.8264      124.039 
8.13354e-06      4.47254     -166.029 
8.13572e-06      10.2062      76.4010 
-2.41831e-05      10.6381     -71.0193 
4.78783e-05      6.84236      96.3784 
0.000103671      12.3746     -134.541 
-5.57931e-05      10.3300     -29.8409 
1.61602e-05      8.93986      95.3895 
2.41570e-05      10.3601     -18.9258 
-4.78169e-05      10.5226     -110.121 
6.37582e-05      11.6798      30.3426 
1.59476e-05      11.6259      49.0461 
-7.98318e-05      10.1095     -12.2216 
-8.10124e-06      5.22432      31.3773 
-2.42021e-05      13.6844      48.3187 
8.06945e-06      12.6316     -128.248 
-3.19348e-05      8.98203      78.4385 
3.19357e-05      10.1205      32.2454 
-1.59892e-05      8.57611     -107.928 
-4.00181e-05      13.7623      134.116 
3.18260e-05      8.80015      179.477 
2.40428e-05      13.5935      47.8616 
-3.98217e-05      11.7530     -42.1017 
2.39258e-05      10.4372      72.6059 
3.18698e-05      13.3999     -138.267 
8.07013e-06      10.3579      153.138 
4.77978e-05      10.8317      116.421 
8.04997e-06      8.21544      176.512 
5.57660e-05      13.0595     -40.0307 
3.97535e-05      10.3887     -127.333 
-8.03058e-06      8.96292     -78.4135 
2.39542e-05      10.4295      153.829 
8.01131e-06      13.4635     -45.0000 
3.17776e-05      12.4475     -51.1962 
1.59957e-05      10.2902     -97.5930 
-3.18254e-05      1.41520     -132.701 
4.75823e-05      10.0600      173.722 
7.14786e-05      10.2009      33.9706 
-4.76634e-05      10.2905      96.6959 
-8.02597e-06      9.33848     -63.8179 
5.54689e-05      13.1100     -44.5664 
-7.93319e-05      13.6979      48.2554 
3.17119e-05      11.9065     -147.485 
-2.39010e-05      10.3714     -75.4812 
3.97185e-05      8.95929      95.3778 
4.75262e-05      13.6488     -134.109 
2.37896e-05      9.96410      75.3515 
8.00093e-06      10.6233      31.6849 
1.58499e-05      8.82025      179.610 
4.75484e-05      10.3422     -19.3118 
7.99046e-06      6.16118     -162.624 
2.37599e-05      13.3959     -48.9361 
-7.98141e-06      12.9372     -51.4642 
3.16766e-05      13.0521      140.286 
7.96083e-06      10.0801      173.735 
3.95947e-05      13.9738     -135.812 
4.75281e-05      11.0514     -34.7562 
2.37774e-05      10.2843     -21.3248 
-7.13082e-05      12.7727     -142.699 
5.53687e-05      13.4492     -45.0610 
2.37457e-05      9.79120     -16.2488 
3.17110e-05      10.3728     -18.7836 
5.53826e-05      14.0461      43.7878 
5.53763e-05      10.3103     -97.5781 
3.16236e-05      11.0908     -116.336 
-7.13935e-05      7.77958      125.159 
-2.37616e-05      12.8347     -140.754 
-3.17121e-05      10.6447     -70.9162 
-1.59053e-05      12.1035     -138.750 
7.95801e-06      11.5134      60.8957 
-1.58858e-05      8.98203     -78.4385 
-4.73480e-05      13.7759      134.175 
-7.95049e-06      11.0514      145.244 
3.95571e-05      14.2841      134.659 
-1.58392e-05      11.8211     -30.1653 
-1.58550e-05      10.8918      53.3614 
-1.58282e-05      9.46395      165.935 
1.57975e-05      10.4573     -113.084 
-1.58066e-05      9.77980      165.310 
2.37240e-05      13.5799      47.9250 
-7.90534e-06      5.20002      31.7933 
-7.92694e-06      9.74483     -53.7663 
-7.91726e-06      8.44411     -126.814 
1.58183e-05      8.47375     -20.4474 
7.92689e-06      10.4203      153.680 
-7.91353e-06      13.5525      138.949 
1.60921e-05      6.94056     -116.715 
-7.90322e-06      9.51535      21.7116 
-7.90027e-06      5.96019     -151.541 
3.15784e-05      13.0725     -40.0987 
-1.57532e-05      10.8892     -28.1668 
7.89697e-06      10.4021      153.631 
3.15361e-05      11.5488      150.993 
7.89285e-06      11.5134      29.1043 
-1.57778e-05      10.3765     -75.3729 
-2.36273e-05      11.5549     -135.771 
-1.57633e-05      10.6334     -127.819 
2.36472e-05      11.4629     -32.3855 
-7.90735e-06      12.9221     -129.158 
-7.88817e-06      9.90764     -145.445 
2.36001e-05      11.0799      155.471 
7.89292e-06      13.4226      41.1944 
7.89050e-06      11.5712     -139.205 
-1.57547e-05      11.0399      145.330 
-7.88923e-06      8.48714     -85.4055 
-1.57729e-05      14.0011      44.8849 
-1.57511e-05      11.8546      124.065 
7.87024e-06      8.52310     -14.2663 
-1.57780e-05      10.0284     -164.853 
-7.87008e-06      8.43243     -126.708 
-7.88367e-06      12.0616      54.1760 
-7.87894e-06      6.01918      171.981 
-2.36111e-05      10.6474     -25.1220 
7.88660e-06      7.65330      77.7789 
-7.87693e-06      8.59872      74.3458 
-7.85113e-06      10.2134     -144.162 
-7.87517e-06      10.1138     -12.3338 
-1.57638e-05      12.7566     -142.644 
7.87947e-06      6.23325     -138.382 
7.87218e-06      10.4092      114.398 
-7.87544e-06      9.15941      3.75787 
7.85617e-06      11.4964      29.1516 
-7.86693e-06      14.1456      133.738 
-7.84870e-06      9.52461     -108.740 
-7.86948e-06      10.6413      66.5208 
-7.85622e-06      8.13608     -104.960 
-7.85376e-06      10.0083      160.264 
7.85989e-06      10.8534      35.0965 
-7.85902e-06      12.4949      145.037 
-7.85162e-06      13.1308     -128.755 
7.86301e-06      13.5529     -46.5547 
7.86691e-06      11.5734     -139.346 
7.85738e-06      11.5159     -36.8094 
6.56822e-05      8.55594     -6.57714 
-4.63502e-05      8.59327      74.4759 
2.92333e-05      12.6557      126.907 
-5.45350e-05      13.5167      47.3375 
5.47766e-05      11.6106      59.4573 
3.51333e-05      12.6841      126.925 
4.31607e-05      12.2612     -45.0645 
-4.26548e-05      11.6142      121.335 
-9.04227e-06      8.50910      75.0152 
2.58047e-05      7.58893     -94.9918 
-8.87015e-06      7.95433     -156.593 
-1.70882e-05      10.1351      85.2476 
-2.53464e-05      4.59433      96.9985 
2.50082e-05      8.98137      95.4943 
1.69488e-05      10.5659     -152.126 
-2.51629e-05      7.97293     -156.651 
2.51359e-05      1.23446      139.610 
1.67231e-05      5.90151     -1.16572 
1.67169e-05      12.5358      126.633 
8.52836e-06      14.0771      136.670 
-1.65634e-05      8.33297      60.0503 
-2.48771e-05      12.3460     -132.243 
1.67020e-05      11.6786     -47.5676 
8.46524e-06      6.23550     -138.640 
1.66830e-05      11.7212     -52.3473 
1.66903e-05      11.6253      51.3546 
-1.65045e-05      5.20703      31.4934 
8.29436e-06      7.79344      38.0197 
-8.27343e-06      9.70082      40.6523 
-8.25441e-06      11.6766     -56.1751 
8.21667e-06      11.2979      48.9480 
8.20172e-06      8.21428      176.648 
-8.18716e-06      7.08757      126.740 
8.18146e-06      10.1961     -145.874 
8.18238e-06      10.1642      42.4478 
-8.14009e-06      8.78798     -158.926 
8.11984e-06      11.3606     -40.6473 
8.10904e-06      12.2571     -35.1670 
8.08634e-06      11.1234      55.2518 
8.06744e-06      9.72727     -130.833 
! Tentative model.
! Flux (Jy) Radius (mas)  Theta (deg)  Major FWHM (mas)  Axial ratio   Phi (deg) T \
! Freq (Hz)     SpecIndex
-8.99694e-06      8.59351      74.4759 
