! Center RA: 12 21 31.69052,  Dec: +28 13 58.50011 (2000.0)
! Established model.
! Flux (Jy) Radius (mas)  Theta (deg)  Major FWHM (mas)  Axial ratio   Phi (deg) T \
! Freq (Hz)     SpecIndex
 0.0473378    0.0397705     -90.0000 
 0.0104142    0.0286526     -135.000 
 0.0223259    0.0202604     -90.0000 
0.00693363    0.0446338     -116.996 
0.00413913    0.0202604      90.0000 
0.00100253      0.00000      0.00000 
0.000482676    0.0633577      71.3505 
0.00217572    0.0828082      75.8378 
 0.0115354     0.121759      80.4216 
0.00652702     0.141777      81.7841 
0.00387532     0.161111      82.7757 
0.000641239     0.219863      90.0000 
0.000599869     0.240124      90.0000 
0.00135923     0.280627      94.1402 
0.000417551     0.300838      93.8616 
0.000414946     0.101837      78.5245 
0.00391782     0.322129      97.0919 
0.00304892     0.345185      100.015 
0.00484120    0.0633577     -108.650 
0.000339252     0.365154      99.4623 
0.00104243     0.369026      102.567 
0.00971367     0.746703      110.347 
0.00202765     0.388092      101.940 
0.00890145    0.0828082     -104.162 
0.00279420     0.407936      101.351 
0.00172728     0.431906      103.360 
0.00224070     0.450910      102.787 
0.000470441     0.727741      110.902 
0.000226036     0.709549      111.464 
0.000224071     0.765732      109.820 
0.000654363     0.690733      112.079 
0.000436872     0.784114      109.337 
0.00103278     0.803259      108.858 
0.00480824     0.672002      112.728 
0.000596646     0.107434      68.2729 
0.00132268     0.821746      108.418 
0.000191762     0.181229      83.5812 
0.00337331    0.0720098      56.4755 
0.000725453     0.325253      100.636 
0.000362930    0.0896014      63.6495 
0.00392321     0.302778      97.5477 
0.00301652     0.840993      107.982 
0.000875008     0.260423      94.4620 
0.00274412     0.101837     -101.476 
0.00136982     0.470689      102.241 
0.000935009     0.860287      107.566 
0.00113876     0.698601      113.619 
0.00261151     0.121759     -99.5784 
0.000723432     0.490508      101.740 
0.00232645    0.0562440      45.0000 
0.000255595     0.466942      99.9013 
0.00118896     0.866617      108.843 
0.00142958     0.717210      112.970 
0.00104439     0.885104      108.435 
0.000753573     0.509625      101.293 
0.000870139     0.486913      99.4914 
0.000188668     0.891718      109.670 
9.58730e-05     0.904347      108.029 
0.00229346     0.141777     -98.2159 
0.000278395     0.735213      112.377 
0.000188061     0.910821      109.241 
9.22504e-05     0.942245      107.281 
0.00188640    0.0633577      18.6495 
9.08430e-05     0.981011      106.578 
0.000266010     0.999726      106.258 
0.000419863     0.854373      110.568 
0.000168670     0.835434      111.056 
0.000256527      1.01919      105.940 
8.61673e-05     0.780402      112.620 
0.000794217      1.04433      106.703 
0.000630539     0.506166      99.1272 
0.00135823     0.529508      100.864 
0.00109259     0.880267      111.293 
7.57915e-05     0.861421      111.783 
0.000840615      1.06870      107.404 
0.00127932     0.161111     -97.2243 
0.00121476    0.0802914      0.00000 
0.000233361     0.306099      101.310 
0.000382957      1.08805      107.085 
0.000181911      1.09418      108.099 
5.97788e-05     0.329594      104.100 
5.93573e-05     0.553458      102.529 
0.000606775     0.850533      113.557 
0.000308788     0.824622      112.808 
0.000571974     0.568616      100.109 
7.14561e-05     0.877265      114.241 
0.000607789     0.565518      98.1624 
0.000346880     0.895778      113.709 
0.00176970     0.546212      98.4529 
0.000193911     0.921540      114.332 
0.000263264     0.940038      113.823 
6.43064e-05     0.995250      112.427 
0.000125444      1.01401      111.990 
0.000829262     0.903799      114.842 
0.000521602    0.0600310      0.00000 
0.000180758      1.03212      111.585 
9.86085e-05     0.282706      98.0871 
5.83974e-05      1.05099      111.178 
0.000114195      1.05848      112.201 
0.000376533      1.07726      111.794 
5.54181e-05     0.349279      103.290 
0.000463887     0.140322     -90.0000 
0.000105165     0.392593      104.727 
0.000437586      1.09540      111.415 
5.08134e-05     0.417588      106.709 
9.87474e-05     0.398226      107.547 
0.000527928     0.930071      115.469 
0.000140736     0.423858      109.333 
0.000266022      1.11429      111.035 
0.00132264     0.159832     -90.0000 
4.48533e-05     0.430710      111.783 
8.72935e-05     0.457182      113.199 
4.24724e-05     0.438632      114.241 
0.000246924      1.12172      112.001 
4.15738e-05     0.465536      115.491 
8.05988e-05     0.501018      118.638 
0.000299453    0.0828082     -14.1622 
4.01062e-05      1.13322      110.667 
0.000116069     0.957123      116.043 
0.000262825      1.14053      111.619 
7.71425e-05     0.528203      119.442 
0.000455959     0.543603      96.3402 
0.000182206     0.538451      121.320 
0.000211499     0.975367      115.520 
0.000211308      1.15150      110.324 
0.000199384     0.259634      90.0000 
0.000600416      1.77181      110.477 
3.48134e-05     0.521249      122.478 
0.000351720      1.75354      110.700 
3.43201e-05     0.566331      122.005 
0.000539161     0.107434     -21.7271 
0.000226370      1.16375      109.042 
0.000196425     0.549255      123.126 
6.54403e-05      1.00142      116.047 
0.000125055      1.17052      109.980 
0.000276425      2.93064      112.888 
0.000270941     0.541740      94.2100 
3.18073e-05      1.01966      115.547 
0.000183559     0.576909      123.649 
6.19868e-05      1.06428      115.608 
3.01868e-05      1.04672      116.069 
8.68372e-05      1.10958      115.647 
8.61710e-05     0.560155      124.797 
0.000105316      1.17680      107.823 
0.000113119     0.260423      85.5380 
0.000140140     0.959745      90.0000 
8.45907e-05      1.09135      116.107 
0.000606957      2.92311      112.536 
5.73196e-05     0.604406      124.223 
0.000111737      1.18292      108.722 
2.88685e-05     0.980215      91.1844 
8.29585e-05     0.621263      123.172 
5.53417e-05      1.18958      109.647 
0.000133345     0.520413      92.2312 
5.44811e-05      1.57531      110.058 
5.44452e-05     0.516406      125.538 
2.74636e-05     0.262662      81.2912 
0.000144971     0.959959      88.7907 
0.000355914      1.55008      109.602 
0.000321749      1.11816      116.548 
2.65667e-05     0.649334      123.690 
0.000101647     0.500058      126.887 
0.000101786     0.297155      70.3754 
5.17094e-05     0.665655      122.759 
5.18135e-05      1.77900      111.088 
0.000234690     0.941076      87.5779 
9.89170e-05     0.499758      90.0000 
0.000467020     0.180093     -90.0000 
0.000456135      1.79791      110.856 
0.000172383     0.676411      124.148 
9.65718e-05     0.471709      126.396 
7.20653e-05      1.17076      106.879 
0.000159469     0.116465     -31.0271 
0.000234377     0.693272      123.208 
0.000199592     0.304558      66.7829 
0.000399674      2.27770      110.017 
0.000172227      2.89665      112.320 
0.000232051      3.28041      112.970 
2.34035e-05     0.500168      92.3215 
9.02343e-05      2.51408      111.465 
0.000249743     0.480248      90.0000 
6.71929e-05      1.16504      105.925 
0.000429305     0.484006      128.327 
0.000346930      1.12736      117.469 
0.000107773      3.30600      113.149 
0.000245830      2.88902      111.948 
4.27892e-05      1.15984      104.998 
6.21970e-05      2.54037      111.723 
0.000101773     0.721344      123.674 
2.09208e-05      3.31402      113.471 
8.06173e-05     0.134233     -26.5651 
0.000157252      1.13029      103.280 
8.17276e-05      3.33261      113.332 
0.000488570      1.53101      109.856 
0.000554792      2.27109      109.554 
0.000530465      2.86365      111.732 
0.000515998      1.82340      111.232 
0.000113662     0.200353     -90.0000 
1.99721e-05     0.883858      84.7880 
5.88957e-05      3.35926      113.513 
5.76106e-05      2.55920      111.555 
5.84049e-05      3.43019      113.722 
7.54961e-05     0.863684      84.6659 
0.000192300     0.313099      63.3735 
7.47366e-05      3.45622      113.899 
5.55345e-05     0.128090     -38.8171 
3.71433e-05      3.28807      113.283 
0.000152999     0.280627     -94.1402 
3.59497e-05     0.732771      124.992 
0.000324603      2.87093      112.093 
5.26165e-05     0.459987      90.0000 
0.000139530      1.15406      117.915 
1.82922e-05     0.260423     -94.4620 
0.000284521      1.12597      102.313 
8.72096e-05      2.55183      111.132 
0.000140583      3.48266      114.058 
3.57970e-05     0.480675      92.4157 
5.23148e-05      3.26947      113.423 
0.000101499     0.845593      83.2218 
8.37568e-05      1.13685      118.375 
0.000268262     0.704572      124.587 
0.000146052     0.161111     -82.7757 
0.000154954      3.24314      113.249 
4.87976e-05     0.144435     -33.7726 
0.000248512      3.50875      114.230 
0.000137473     0.460433      92.5220 
1.64776e-05      1.00106      92.2769 
9.38082e-05      2.54460      110.706 
0.000275524      1.16332      118.764 
0.000140199     0.304887      58.3833 
8.72089e-05     0.843513      84.5379 
0.000209151     0.300838     -93.8616 
0.000266104      2.26439      109.071 
4.24927e-05      1.00047      91.1604 
0.000213059      3.26176      113.109 
0.000331267      1.15476      104.027 
0.000138689     0.496341      130.094 
2.91273e-05      2.53776      110.294 
0.000255251     0.181229     -83.5812 
0.000146282      3.53556      114.395 
2.81688e-05      2.50490      109.586 
2.74834e-05      2.87214      115.139 
4.01466e-05      2.70740      108.972 
0.000363650      1.83055      111.801 
0.000112960     0.461703      94.9415 
0.000175299     0.315980      55.2532 
2.71217e-05      2.49843      109.164 
0.000272867     0.468857      129.806 
6.44216e-05      3.54366      114.682 
2.62988e-05     0.826223      83.0622 
1.31408e-05      2.49185      108.724 
3.84463e-05      2.88048      115.490 
0.000253806      1.17320      119.631 
4.99510e-05      2.46619      108.429 
0.000185997      2.70088      108.566 
7.88131e-05      1.00027      90.0000 
0.000264789      5.71608      130.597 
0.000138577      2.25809      108.604 
6.31709e-05     0.824094      84.4088 
9.19576e-05     0.320306     -93.6266 
0.000132261      1.52425      109.140 
6.86627e-05      2.86221      115.665 
0.000269805      5.55916      122.660 
0.000164304      3.57054      114.842 
1.19683e-05     0.161670     -29.7779 
1.17565e-05      2.44154      108.140 
5.52652e-05      2.43531      107.687 
6.35451e-05     0.744131      126.223 
4.31306e-05     0.463888      97.4354 
2.09089e-05     0.771858      126.580 
0.000196924     0.312731      50.1592 
9.10188e-05      3.25386      112.780 
8.71506e-05      2.87104      116.029 
0.000218247     0.441522      95.1680 
2.10480e-05     0.322129     -97.0919 
4.06899e-05      2.41011      107.391 
0.000124403     0.342244     -96.6731 
8.79062e-05      2.25171      108.115 
0.000272090      1.85692      112.150 
3.00620e-05      3.04266      107.599 
2.99984e-05      1.51796      108.444 
0.000130686      1.18335      120.484 
9.27315e-05      3.56208      114.546 
0.000118793      1.00047      88.8396 
9.76257e-06      3.03660      107.235 
0.000100949      1.67190      96.8826 
0.000130086      3.13968      122.775 
9.00820e-05      2.40413      106.930 
4.71128e-05      3.00563      106.625 
0.000102887     0.812072      127.982 
1.84668e-05     0.784101      127.769 
7.38216e-05      2.66919      107.895 
7.22084e-05      5.67484      130.425 
7.51330e-05     0.201375     -84.2257 
0.000133891      2.99990      106.254 
2.62530e-05      2.26481      107.468 
0.000165762      1.69202      96.8004 
0.000150694     0.345185     -100.015 
0.000100326      1.18381      105.666 
0.000172062     0.481580      131.589 
0.000209957     0.325575      42.4780 
4.88488e-05      2.24549      107.624 
0.000203970      2.85352      116.201 
8.24390e-05      3.77838      110.447 
9.66110e-05      1.19336      121.291 
9.89783e-05      1.67435      97.5454 
1.60703e-05      2.37889      106.606 
6.78547e-05      2.39831      106.467 
0.000146997     0.509625      131.837 
2.28540e-05      2.96949      105.627 
1.52922e-05      1.52297      103.680 
7.46743e-05      3.77135      110.158 
4.45309e-05      2.25903      106.996 
0.000167468     0.853200      129.289 
7.61654e-06      2.69450      108.157 
0.000119760      2.99449      105.896 
1.46059e-05      3.64080      115.725 
3.49428e-05      5.58652      122.727 
7.43855e-06      1.22122      121.610 
7.40272e-06     0.824695      129.091 
7.34742e-06      1.20401      122.115 
7.30229e-06      3.53979      111.201 
0.000123749      2.96410      105.250 
8.26680e-05      1.00106      87.7231 
8.18307e-05      1.23196      122.412 
7.22800e-06      2.59986      112.627 
4.74768e-05      2.23966      107.148 
4.62774e-05      1.51830      102.937 
4.63220e-05     0.220795     -84.7351 
0.000119591      1.15002      103.048 
0.000110374     0.369026     -102.567 
4.11143e-05      3.76467      109.880 
1.37772e-05      2.60743      113.023 
1.34658e-05      3.53252      110.895 
2.03778e-05      2.39286      106.019 
2.41315e-05      1.68974      96.1182 
8.28725e-05      5.57012      122.836 
1.84822e-05      3.68539      116.429 
7.24241e-05     0.420705      92.7603 
6.58977e-05      3.27255      112.643 
2.49780e-05      1.17870      104.753 
1.89272e-05      3.51360      111.013 
4.87441e-05      2.58186      112.794 
2.57861e-05      2.41234      105.887 
3.22366e-05      3.78302      109.779 
0.000111537      3.87719      119.343 
6.45002e-06      2.63766      107.193 
2.40288e-05     0.440193      92.6380 
8.23438e-05      1.24253      123.172 
6.44163e-05      2.23377      106.651 
2.77857e-05      3.69411      116.700 
0.000108343      3.77621      109.490 
6.20944e-06      2.43111      105.761 
0.000147795      5.98435      129.168 
6.08115e-06      2.48893      105.385 
7.07777e-05      1.67713      98.2316 
0.000118466     0.523357      133.490 
0.000115056      1.53806      102.768 
5.99670e-06      2.42568      105.300 
4.02284e-05      1.86466      112.726 
5.38753e-05     0.240977     -85.1771 
8.58739e-05     0.344213      35.5958 
2.81978e-05      2.48364      104.935 
0.000100962     0.373757     -105.487 
1.14346e-05      2.40687      105.423 
1.63749e-05      3.50638      110.704 
0.000132469      2.58948      113.192 
0.000174767     0.420217      90.0000 
5.45845e-06      1.89893      113.597 
1.60702e-05     0.880659      129.468 
0.000105836      3.15070      123.085 
5.52334e-05      3.02505      106.515 
4.15615e-05      1.25373      123.947 
3.13853e-05      1.90682      114.134 
4.10182e-05      2.45961      104.596 
1.05436e-05      1.01998      91.1382 
3.07093e-05      2.22805      106.152 
6.77316e-05      1.00559      72.6332 
0.000122476      3.29057      112.512 
0.000103698      3.76950      109.200 
4.85203e-05     0.893674      130.471 
3.97550e-05      1.04177      93.3035 
1.95624e-05      1.94141      114.990 
5.49470e-05      2.93500      104.601 
0.000114616      1.28186      124.192 
9.26711e-06      1.01158      71.5785 
4.91556e-06      1.62275      120.359 
2.38926e-05      1.68004      98.8901 
4.14810e-05      2.22270      105.669 
4.83267e-06      1.09157      98.4198 
3.22886e-05      1.63269      120.950 
3.66822e-05      2.45476      104.155 
4.81015e-06      1.70255      93.3605 
0.000168561     0.379669     -108.435 
6.43073e-05     0.360880      33.7231 
2.66439e-05     0.260423     -85.5380 
8.29005e-05     0.922240      130.611 
5.25495e-05      3.06126      107.489 
9.22231e-06      1.94973      115.510 
1.33333e-05      1.72176      92.6729 
1.35312e-05      1.68329      99.5715 
2.17318e-05     0.551483      133.511 
4.49641e-06      1.97677      115.787 
4.44821e-06      2.43512      104.272 
4.48409e-05      1.98567      116.313 
1.20402e-05      1.01978      90.0000 
2.13702e-05      1.68678      100.250 
8.63523e-05      3.76313      108.919 
8.32239e-05      1.64321      121.556 
2.88616e-05      2.21732      105.165 
4.27589e-05      3.05523      107.127 
3.22815e-05      2.44989      103.696 
4.25559e-05      2.84463      115.835 
1.63457e-05      1.74118      91.9758 
3.92933e-05      2.93015      104.232 
1.21576e-05      2.43021      103.809 
1.19740e-05     0.623033      132.413 
1.80766e-05      3.72951      117.112 
4.08199e-06     0.594411      132.288 
2.70839e-05      1.69036      100.901 
1.18842e-05     0.262662     -81.2912 
3.99324e-05     0.665671      131.344 
3.64721e-05      1.76011      91.2947 
3.88647e-06      2.19777      105.303 
3.76226e-05      5.55310      122.949 
3.25769e-05     0.440329      129.468 
2.91593e-05      2.19251      104.792 
2.55680e-05     0.366905      29.3961 
3.80483e-06     0.282706     -81.9129 
1.44767e-05      1.72249      102.735 
4.92785e-05      2.42545      103.344 
2.04671e-05     0.212689     -131.281 
1.40691e-05      2.57087      113.370 
5.32712e-05      2.02163      117.069 
1.41515e-05     0.286260     -77.8948 
3.31611e-05      1.26515      124.708 
5.96077e-05      2.90556      103.943 
7.22285e-06     0.950322      130.709 
1.41462e-05      3.73813      108.722 
3.34155e-05     0.963658      131.622 
1.61588e-05      1.06498      95.3772 
3.51099e-05     0.651151      132.478 
2.92662e-05      3.75661      108.627 
3.54916e-05     0.384685      27.9147 
2.54218e-05      1.71829      102.100 
3.40412e-06      1.04080      92.1899 
2.87836e-05      2.18761      104.298 
3.16908e-05      1.78036      91.2800 
2.85786e-05     0.399806      126.913 
2.85479e-05      3.73191      108.439 
6.50712e-06     0.310708     -75.0240 
2.81347e-05      2.42102      102.895 
3.19663e-06      1.51390      102.190 
1.53193e-05     0.991703      131.749 
9.23704e-06     0.316312     -71.6080 
9.16385e-06      3.09270      108.079 
6.11119e-06     0.999795      70.1234 
3.00831e-06     0.198446     -135.000 
2.96967e-06     0.694267      131.495 
0.000293819      12.6943      41.5517 
0.000325821      12.6286      42.3028 
-0.000398601      9.37766      173.632 
0.000355212      4.25889     -28.0054 
-3.90477e-05      2.19547      59.9296 
-0.000542857      1.86563      160.596 
-3.81484e-05      2.20569      59.4742 
0.000238830      8.72976      4.73338 
-0.000108570      2.18826      59.2047 
0.000169002      5.84797     -142.502 
0.000101254      5.83611     -142.654 
-7.06309e-05      5.51250     -157.156 
3.56301e-05      12.6961      41.4226 
0.000220469      12.6087      37.5260 
0.000363127      12.6272      42.4326 
0.000327579      11.6190     -40.4608 
-3.41136e-05      7.05785      4.06044 
-0.000151328      2.17796      59.6626 
-0.000344129      5.49383     -157.074 
-0.000272047      13.2377      135.613 
-0.000318066      9.03368     -37.9894 
0.000282138      8.93104     -85.2480 
9.56099e-05      12.7107      41.3644 
6.38344e-05      9.97454     -130.365 
-9.54420e-05      7.05649      3.90243 
9.30845e-05      8.15418     -123.496 
0.000312046      4.10601     -176.931 
0.000221749      4.28564     -28.1221 
-0.000330048      10.3445      148.923 
-0.000383581      12.7482     -142.844 
0.000118619      3.10365      82.9729 
0.000188412      5.20557      109.057 
0.000248178      6.09236      48.4602 
0.000240740      6.67095      174.494 
8.72247e-05      8.90925     -85.3622 
-0.000111962      11.6559      130.826 
5.76429e-05      5.83250     -142.386 
-5.48501e-05      11.5765     -33.7993 
-5.71333e-05      5.79770     -173.460 
5.39241e-05      12.5455      129.503 
0.000210354      10.7165      152.669 
8.25588e-05      6.04214     -106.932 
-5.53150e-05      9.43002     -111.393 
-8.17741e-05      12.9265     -44.4990 
0.000155144      6.07667     -69.1748 
0.000106459      11.7881      52.7216 
0.000157124      6.78188     -17.1498 
-2.79460e-05      11.0506     -112.898 
0.000129327      13.4680      136.565 
-7.74871e-05      6.38028      46.3963 
-0.000103586      12.7430      131.120 
0.000102225      3.10133      83.3307 
0.000152717      11.9848     -127.406 
-7.71532e-05      11.0585     -112.995 
-7.54214e-05      5.79543     -173.659 
-0.000177161      8.70732      35.3706 
0.000100941      10.2381     -172.931 
-2.67096e-05      7.77693      111.421 
5.21437e-05      10.0463      115.340 
-5.14443e-05      5.42395      50.0848 
-7.62929e-05      9.76113     -133.505 
2.59385e-05      11.0968      151.589 
-5.02402e-05      9.96772      58.9571 
7.47892e-05      6.29762     -27.6215 
-7.49336e-05      8.93545     -7.45983 
-5.02852e-05      11.0172     -114.566 
7.40040e-05      8.25240      36.4250 
-7.38709e-05      1.84078      160.967 
4.97482e-05      12.6206      37.5962 
4.97251e-05      3.75960     -14.4828 
-4.96017e-05      12.0078      49.8644 
-4.93243e-05      13.2096      135.612 
-9.78650e-05      9.68198     -171.685 
7.39149e-05      12.6422      42.3707 
-4.89640e-05      8.94998     -87.3089 
-2.50701e-05      7.74402      111.194 
-7.24838e-05      4.68887     -80.1774 
-4.90631e-05      7.06948     -23.1579 
7.24345e-05      2.54393      3.16202 
4.87159e-05      10.0287      115.388 
-4.88184e-05      5.82596     -39.4286 
7.23884e-05      2.62489      19.1239 
-4.78413e-05      7.25870     -59.9017 
4.81714e-05      7.71718     -100.001 
2.44387e-05      9.33077     -159.159 
2.41399e-05      10.0585      65.3201 
2.41379e-05      5.77977     -138.368 
2.39244e-05      11.3011     -128.533 
-2.38261e-05      5.39541      50.1118 
2.37661e-05      6.47116     -160.498 
-2.37376e-05      9.76243     -133.340 
-2.37305e-05      11.0253     -114.659 
-2.36364e-05      5.96698     -62.2297 
-2.35035e-05      12.9121     -44.5621 
-2.34734e-05      5.28896     -16.9258 
-2.34198e-05      2.59497      83.8080 
-0.000261399      1.74027     -179.333 
0.000213249      11.0241      150.551 
2.28896e-05      9.77863     -81.0559 
0.000137824      9.79865     -81.0744 
9.50123e-05      10.6435      113.241 
-7.62972e-05      5.54917     -22.6848 
1.89830e-05      9.87687      112.877 
1.88489e-05      5.29600     -37.1686 
5.29561e-05      9.85062      112.819 
8.35884e-05      5.32379     -37.2155 
-1.78343e-05      4.71289     -70.4082 
-9.53628e-05      10.1893     -69.4296 
8.94170e-05      10.6256      113.283 
6.39714e-05      8.84600      155.983 
-0.000134676      1.75966      180.000 
-7.90387e-05      5.56787     -22.6044 
-9.19842e-05      10.4779     -104.144 
-3.16754e-05      4.70614     -70.6405 
-3.27862e-05      10.4221     -168.150 
6.13482e-05      11.0517      150.511 
3.20981e-05      9.84278      112.710 
-1.62143e-05      4.72526     -70.7220 
1.60712e-05      2.03050     -39.7974 
3.01236e-05      10.4201     -53.3504 
3.10269e-05      8.34562     -59.6238 
-3.06500e-05      5.30571      25.2132 
-1.56603e-05      9.53231      121.355 
-8.38282e-05      6.50799      79.5504 
2.72585e-05      3.06076      65.2759 
-5.45019e-05      3.76702      140.813 
8.04975e-05      10.4480     -51.5291 
3.00262e-05      2.05903     -39.8697 
1.52529e-05      9.96139      112.551 
-6.49390e-05      10.4419     -168.173 
-0.000114210      9.54287      121.459 
5.59403e-05      4.05016     -34.9503 
6.73834e-05      12.4427     -129.651 
2.77876e-05      9.98759      112.610 
-2.80462e-05      6.12516      145.375 
3.82626e-05      3.07012      65.7716 
4.14446e-05      8.32815     -59.5533 
5.42258e-05      7.47722     -10.1675 
1.43491e-05      5.33994     -37.0841 
1.41903e-05      9.98011      112.506 
-7.14526e-05      5.32336      25.1237 
2.69983e-05      8.98993     -97.1588 
5.10165e-05      2.07404     -39.5242 
1.39367e-05      9.02890      158.151 
-1.38911e-05      9.42521     -120.755 
6.57355e-05      8.48003      14.7593 
-3.81383e-05      3.75192      140.624 
-6.28487e-05      3.66495      43.0171 
-7.44401e-05      5.59368     -22.7192 
1.36641e-05      9.80947      112.540 
6.10761e-05      11.0341      150.459 
-2.50449e-05      4.76946      22.6920 
9.47731e-05      5.11318      9.68212 
3.58531e-05      5.23047     -41.1202 
-4.69451e-05      10.4588      166.735 
-1.32896e-05      4.68703     -70.5584 
-4.38556e-05      10.2154     -69.3632 
-4.76992e-05      3.97545     -73.9358 
-1.30678e-05      10.4680     -104.382 
2.56039e-05      7.71536     -101.512 
4.76067e-05      9.04701      158.197 
-3.52158e-05      6.32176      44.6153 
9.39213e-05      6.39595     -126.225 
-3.60512e-05      6.07790      141.547 
2.50988e-05      7.92589      47.2483 
4.73717e-05      8.31790     -59.6736 
1.25477e-05      8.76442      155.891 
3.49056e-05      9.24088     -97.5873 
1.24912e-05      10.0063      112.565 
-2.36913e-05      10.4827     -104.247 
-1.23939e-05      12.9822      42.3153 
-2.28419e-05      9.41525     -120.653 
3.59213e-05      8.74491     -91.9670 
1.22899e-05      9.96139     -22.5508 
-2.38269e-05      10.0655      40.9705 
2.28916e-05      5.90765     -146.738 
1.20905e-05      7.71671      105.945 
-1.20198e-05      6.04161      43.2536 
-1.20128e-05      3.96989     -74.2168 
-1.20010e-05      6.13440      113.639 
-1.19666e-05      4.68032     -70.7923 
2.04805e-05      6.97194      81.7513 
-2.33247e-05      5.07997      160.211 
2.29703e-05      6.49678     -70.3951 
3.24759e-05      4.06678     -34.7868 
4.29508e-05      9.96085     -21.9272 
4.28048e-05      10.4080     -53.4399 
-0.000121555      12.2485     -44.0742 
0.000155993      13.4685     -138.069 
3.41419e-05      8.46044      14.7943 
3.38331e-05      10.5989      113.225 
1.17399e-05      10.0141      112.672 
-2.28347e-05      12.9959      42.3814 
5.09825e-05      8.30311      131.486 
5.11248e-05      7.92431      47.0453 
-4.25143e-05      6.50434      79.7259 
1.15776e-05      9.96889     -22.6544 
3.13671e-05      12.4577     -129.594 
-2.21190e-05      10.2083     -69.4696 
-1.13965e-05      9.42285      164.490 
1.13531e-05      5.84757     -32.7092 
1.13194e-05      9.76786      112.260 
-3.78744e-05      6.24950      109.244 
3.05521e-05      7.50076     -10.2925 
-4.19070e-05      9.22191     -135.877 
-2.13151e-05      12.4839      41.4276 
-3.13042e-05      4.65550     -70.9401 
-3.95631e-05      10.0404      58.2747 
-0.000103520      10.7395     -140.440 
6.64459e-05      8.74424     -91.8343 
2.14814e-05      4.85407     -141.521 
-5.15195e-05      10.0808      40.8950 
3.06393e-05      5.13240     -163.470 
1.09838e-05      7.72230      106.089 
2.96987e-05      7.73062     -101.342 
1.09089e-05      10.0399      112.736 
4.95078e-05      9.95089     -22.6976 
-4.01201e-05      9.40405      164.458 
-4.10570e-05      13.0095      42.4473 
0.000107297      8.07609     -66.0381 
-3.99760e-05      4.09020      47.1783 
-1.06747e-05      6.09378      141.665 
1.06323e-05      12.6650     -143.801 
4.03039e-05      8.44085      14.8294 
1.06048e-05      4.98724     -95.9851 
-5.31825e-05      12.4553      41.4194 
5.46772e-05      10.4606     -51.4423 
-2.95296e-05      5.61238     -22.6393 
-2.71909e-05      5.09904      160.288 
5.38153e-05      9.90171     -152.969 
-1.03325e-05      4.08869      46.7848 
-1.03335e-05      9.37545      122.810 
5.55195e-05      9.06582      158.244 
5.48757e-05      11.0613      150.423 
1.96741e-05      3.07849      65.4277 
5.07284e-05      13.2657     -45.1215 
2.61468e-05      12.6770     -143.727 
1.02217e-05      10.0586      112.691 
1.93219e-05      10.6069      113.326 
1.94159e-05      6.52858     -70.1238 
-1.00697e-05      4.38427     -81.8727 
6.30460e-05      9.76678      78.7824 
2.73278e-05      5.25850     -41.1467 
-2.72440e-05      4.77732      22.9162 
1.88887e-05      8.62081      155.753 
-1.97714e-05      9.40305      122.843 
2.82799e-05      7.49504      107.708 
-9.97319e-06      7.70503     -123.565 
-9.98815e-06      1.85433     -106.286 
-4.58267e-05      12.3560      132.706 
-9.82365e-06      10.0339      58.1154 
6.19915e-05      9.24347     -97.7071 
-2.71281e-05      6.30735      44.7445 
-1.85005e-05      6.05049      141.577 
3.61263e-05      8.42199      14.8633 
9.63480e-06      4.83822     -141.372 
-2.78539e-05      13.0227      42.5106 
-1.84733e-05      3.26733     -151.074 
9.53139e-06      10.0848      112.749 
2.24133e-05      2.67856     -23.3187 
5.17849e-05      13.2794     -45.0618 
-7.23514e-05      12.2231     -34.9399 
4.77658e-05      10.5953     -56.5497 
2.54803e-05      4.96066      122.151 
9.39953e-06      9.73381      112.084 
2.59285e-05      4.96926     -96.2418 
-9.36154e-06      9.08266     -120.576 
-9.35389e-06      12.4969      128.503 
-9.31157e-06      9.38604      122.910 
-5.81454e-05      10.1088      40.9095 
4.15782e-05      12.6927     -143.779 
3.89828e-05      13.3858     -43.0623 
3.51985e-05      8.40745      15.0273 
-9.19440e-06      10.4610     -168.195 
-4.26166e-05      11.7386      129.332 
-3.49970e-05      9.20738     -135.789 
-0.000101371      4.10348      46.9785 
9.14055e-06      5.87443     -146.525 
3.95198e-05      11.0284     -116.846 
-3.27037e-05      6.25621      109.419 
7.04852e-05      10.6178      64.2064 
-2.64985e-05      9.41406      122.947 
-9.06362e-06      3.67979      42.8018 
4.60394e-05      8.24039      36.3116 
3.18958e-05      10.6881     -116.804 
-8.95117e-06      4.62975     -71.0952 
-8.87232e-06      3.84542      18.8062 
3.94617e-05      10.0773      112.647 
-8.82357e-06      1.84073     -107.068 
-8.77544e-06      6.29986     -108.897 
2.50307e-05      10.6150      113.426 
-1.68290e-05      7.71014     -123.359 
-6.21099e-05      7.22779     -27.3419 
-2.53274e-05      13.0220      42.6344 
-5.18479e-05      12.5002      128.372 
3.26024e-05      9.93220     -22.7427 
1.66018e-05      4.82300     -141.227 
7.49020e-05      11.5089      35.2372 
8.68664e-06      5.02929     -8.00195 
1.60968e-05      8.63417     -86.6818 
8.59074e-06      9.72649      111.978 
1.64692e-05      2.68634     -23.7009 
-1.63257e-05      1.81980      179.362 
4.03592e-05      12.4707     -129.666 
-2.44423e-05      3.88387     -72.3072 
-3.84095e-05      11.0496      67.6603 
-1.61757e-05      9.37931      164.539 
3.06257e-05      7.67543     -5.53168 
-8.39347e-06      3.77938      140.583 
8.35838e-06      7.48082     -10.3203 
2.43116e-05      8.63537     -86.5476 
8.29869e-06      9.89013     -87.4517 
6.43738e-05      5.00922     -8.03421 
-8.28966e-06      7.47973      118.074 
8.26650e-06      6.56148     -69.8512 
-2.34909e-05      9.56369      121.662 
1.60814e-05      5.89725      124.497 
-1.55548e-05      6.52428      79.7576 
-3.68889e-05      12.2626     -44.1422 
8.16836e-06      12.5369     -143.823 
-2.03249e-05      3.25026     -150.908 
2.37004e-05      8.38789      15.0632 
2.26117e-05      9.77550     -81.1733 
-6.62670e-05      12.3279      132.699 
2.35238e-05      7.30280      38.4373 
8.07134e-06      9.71893      111.867 
2.09084e-05      5.28832      39.1664 
3.70392e-05      9.08464      158.292 
1.53909e-05      7.25542     -115.293 
2.97471e-05      7.74264     -101.018 
-3.79857e-05      9.19340     -135.704 
-9.08441e-05      10.9167      141.472 
-2.25762e-05      9.12763     -31.2869 
1.53537e-05      9.25150      68.7026 
7.92636e-06      7.50122      107.855 
-4.43061e-05      9.39706      123.014 
-2.26638e-05      10.0511      58.1764 
-3.05175e-05      13.0364      42.5763 
7.92948e-06      6.76589      50.7566 
1.50407e-05      10.3099      134.605 
-1.50209e-05      10.2413     -69.3010 
-1.54136e-05      14.1181      133.622 
-1.51022e-05      10.4282      69.6886 
7.79613e-06      9.70082      111.910 
3.62975e-05      11.8804      45.8189 
1.47571e-05      12.4557     -129.723 
1.46216e-05      10.0219      78.4898 
-7.73815e-06      12.7512     -40.6112 
7.73249e-06      6.72258     -16.0640 
7.71864e-06      8.99761     -97.5381 
-6.88488e-05      12.5717      48.8067 
-7.65798e-06      3.79505      140.778 
-6.22165e-05      12.9691      48.8144 
2.84730e-05      10.6228      113.523 
4.83879e-05      7.72465     -38.7971 
6.20060e-05      4.97141     -96.4653 
3.48985e-05      10.1739     -8.59387 
7.57532e-06      6.56823     -69.6914 
1.47394e-05      6.53364     -161.068 
3.45542e-05      7.48194      107.903 
3.46716e-05      1.07647      132.005 
-7.50998e-06      7.58096      88.9394 
7.48931e-06      10.3681     -53.5498 
-6.75336e-05      9.71620      40.5744 
3.47035e-05      9.89291     -152.811 
-1.97520e-05      10.2137     -101.179 
6.82312e-05      11.9093     -146.230 
2.70877e-05      8.55483     -122.688 
-1.44908e-05      10.2742      103.740 
2.81212e-05      9.91352     -22.7880 
-6.77440e-05      14.1321      133.681 
2.11843e-05      4.80722     -141.076 
7.36696e-06      10.0953      112.604 
7.30400e-06      8.40241      14.8988 
1.40738e-05      9.69356      111.803 
-4.70683e-05      12.7226     -40.6013 
-6.65365e-05      11.8442     -51.5828 
2.09450e-05      7.29958      38.6607 
1.40621e-05      8.72541     -91.9714 
-1.40250e-05      6.29351      44.8696 
1.38474e-05      9.16793     -12.2150 
-7.88318e-05      13.0358      42.6999 
2.72038e-05      6.28373     -73.3525 
1.40486e-05      11.9441     -127.310 
-7.18431e-06      4.62322     -71.3327 
-7.17336e-06      6.30536     -108.491 
2.02639e-05      8.61358     -86.8038 
1.39338e-05      8.08434     -65.9068 
7.11751e-06      11.0890      150.384 
-5.28732e-05      9.17891     -135.616 
2.01766e-05      7.24649     -115.504 
7.03904e-06      7.00236      162.546 
1.36345e-05      1.48523     -134.447 
7.02419e-06      5.90874      124.659 
7.00845e-06      9.25861      68.5901 
-2.02613e-05      6.05390      79.9130 
-6.97346e-06      10.0446      58.0173 
6.94588e-06      9.10928      100.374 
6.93634e-06      6.52110     -160.842 
1.98270e-05      8.38062     -66.0651 
-6.92014e-06      9.35978      164.506 
-1.35637e-05      10.2788      103.846 
1.96914e-05      9.20680     -102.163 
6.87109e-06      6.71700     -15.8979 
-6.85314e-06      7.80450     -146.391 
1.35216e-05      11.8622     -131.240 
-3.24152e-05      12.2065     -34.9943 
-3.23123e-05      11.3600      56.1987 
-3.88405e-05      13.5204      137.697 
-2.59282e-05      9.40811      123.117 
-6.75308e-06      11.8543     -48.0764 
-6.71350e-06      4.59780     -71.4823 
-1.29700e-05      10.2098     -101.068 
-2.58914e-05      11.1109     -35.5503 
6.69256e-06      10.2962      134.528 
6.67473e-06      10.6793     -116.711 
-6.66691e-06      3.13205     -106.694 
-6.66461e-06      8.05514     -159.809 
1.28303e-05      9.00019     -97.6613 
1.30853e-05      9.27747      68.6358 
-6.59925e-06      5.58589     -22.5275 
-1.92131e-05      7.79952     -146.188 
1.27899e-05      12.1069     -145.023 
1.91949e-05      9.88798     -22.7276 
-6.54436e-06      9.15444     -31.3278 
1.91983e-05      8.20237      128.269 
6.52890e-06      11.0714      150.332 
-1.91145e-05      10.3026      103.929 
1.91042e-05      4.79147     -140.924 
1.92158e-05      12.8413     -134.747 
6.51069e-06      9.77242     -81.2906 
-2.51602e-05      12.3142      132.629 
2.50658e-05      11.0368      46.9092 
-1.91038e-05      4.11832      47.1708 
1.27088e-05      7.75504     -100.701 
1.27038e-05      11.8756     -131.314 
6.47911e-06      12.1279     -145.209 
-6.47199e-06      9.34098      164.474 
-6.47360e-06      11.8257     -48.0839 
-1.89143e-05      12.5161      128.315 
6.41207e-06      8.31025     -108.522 
1.25816e-05      10.0695      112.540 
-1.24913e-05      9.05184     -116.227 
-6.34122e-06      6.31843     -108.265 
-6.32990e-06      10.0618      58.0784 
6.32660e-06      8.72474     -91.8384 
1.24616e-05      9.75313     -81.2733 
6.29933e-06      8.10284     -65.9653 
1.22432e-05      8.83890      57.5687 
6.26660e-06      9.18700     -12.1892 
6.25740e-06      5.36824      121.435 
6.24072e-06      9.11281      100.495 
6.23251e-06      11.8945      45.7489 
-6.23978e-06      8.11151     -76.8894 
-6.21174e-06      6.52071      79.9328 
6.20549e-06      11.4923      35.2954 
1.23589e-05      12.8856     -52.1865 
-6.20603e-06      7.50714      118.138 
-6.19186e-06      1.90040      178.801 
-6.17426e-06      9.09819      93.6553 
6.17249e-06      12.0546      33.0837 
-6.16393e-06      11.7009     -136.731 
6.14449e-06      8.70628      74.2723 
3.91177e-05      10.5235      138.159 
2.60625e-05      12.0365     -144.674 
1.93411e-05      7.46338      107.949 
1.96160e-05      9.90518     -22.0569 
-6.69414e-06      9.18163      144.128 
-1.94581e-05      13.6720     -132.747 
-1.88616e-05      12.0543     -148.154 
-6.63669e-06      12.5589      48.8737 
2.52013e-05      9.21109     -102.286 
-1.90056e-05      10.2667     -69.2337 
2.52988e-05      11.4217      153.704 
2.52645e-05      7.89726      47.2565 
-3.12746e-05      12.9558      48.8818 
6.51354e-06      11.9994     -144.429 
1.25871e-05      1.47191     -132.810 
-1.27291e-05      6.03741      79.6971 
-6.48824e-06      11.6720     -136.597 
1.27906e-05      7.65602     -5.54575 
-1.25814e-05      11.8122     -48.1570 
6.38377e-06      12.4797     -142.948 
-1.23437e-05      9.19805      144.202 
-6.33027e-06      11.6587     -58.6814 
1.24412e-05      7.69617     -38.7741 
1.23787e-05      7.31541      38.5616 
1.22034e-05      9.78200      78.9211 
1.21689e-05      12.4454     -134.739 
6.17806e-06      4.97614     -96.9289 
-6.18126e-06      12.5470      49.0716 
6.16283e-06      5.01210     -8.26355 
1.21315e-05      11.5254      35.1790 
6.12448e-06      9.27038      68.7481 
1.20895e-05      7.65415     -5.40039 
6.08751e-06      9.89787     -21.9522 
-6.09811e-06      7.24512     -27.2710 
-6.07515e-06      4.43885      99.3397 
6.04470e-06      4.97374     -96.6972 
-6.00821e-06      4.13212      46.9648 
6.01724e-06      12.4603     -142.763 
6.00140e-06      8.36399      14.9688 
5.94655e-06      9.10277      158.337 
-5.95510e-06      6.03395      79.8793 
5.97394e-06      10.8798     -142.919 
! Tentative model.
! Flux (Jy) Radius (mas)  Theta (deg)  Major FWHM (mas)  Axial ratio   Phi (deg) T \
! Freq (Hz)     SpecIndex
-6.55398e-06      13.0219      42.6348 
