! Center RA: 12 21 31.69052,  Dec: +28 13 58.50011 (2000.0)
! Established model.
! Flux (Jy) Radius (mas)  Theta (deg)  Major FWHM (mas)  Axial ratio   Phi (deg) T \
! Freq (Hz)     SpecIndex
 0.0851600    0.0202604      180.000 
 0.0520833      0.00000      0.00000 
 0.0116611    0.0286526      135.000 
0.00930582    0.0202604      90.0000 
 0.0295065     0.430710      111.783 
 0.0150574     0.457182      113.199 
0.00217017    0.0828082      75.8378 
0.00455082     0.325253      100.636 
0.00828816     0.101837      78.5245 
 0.0229819    0.0286526     -135.000 
0.00573993     0.322129      97.0919 
0.00938805     0.465536      115.491 
 0.0132905     0.120062      90.0000 
 0.0107710     0.302778      97.5477 
0.00436311     0.449587      110.825 
0.00102099     0.121759      99.5784 
0.00916607     0.141777      98.2159 
0.00495621     0.306099      101.310 
0.000840554     0.282706      98.0871 
0.00346276     0.467874      109.975 
0.00620329     0.286260      102.105 
0.00139294     0.443026      108.466 
0.000346311     0.329594      104.100 
0.00352926     0.310708      104.976 
0.00441606     0.140322      90.0000 
0.00221709     0.461573      107.699 
0.000293690    0.0446338      63.0042 
0.00326157     0.480914      106.965 
0.00222269    0.0286526      45.0000 
0.00919536     0.161111      97.2243 
0.000268268     0.438632      114.241 
0.000513011     0.447333      116.608 
0.000255213    0.0562440      45.0000 
0.00118999     0.429314      117.819 
0.00255233     0.500328      106.288 
0.00254384    0.0896014      63.6495 
0.00204656     0.181229      96.4188 
0.000237219     0.266484      103.019 
0.00356370     0.772836      111.233 
0.000864713    0.0202604     -90.0000 
0.00229514     0.438758      120.073 
0.00240127     0.524694      107.735 
0.00511773    0.0446338     -116.996 
0.000941126     0.791053      110.721 
0.00358182    0.0848966      45.0000 
0.000366657     0.544027      107.085 
0.000360060     0.835434      111.056 
0.000433143     0.746703      110.347 
0.000532832     0.550320      109.102 
0.00182999     0.854373      110.568 
0.00370961     0.727741      110.902 
0.000679014     0.569504      108.435 
0.000169412     0.342244      96.6731 
0.000802356     0.360755      93.2195 
0.00248766     0.449253      122.310 
0.000917429     0.683639      110.563 
0.00309681     0.594563      109.693 
0.00271001     0.873371      110.101 
0.000734131     0.380236      93.0544 
0.00716946    0.0633577     -108.650 
0.000283031     0.223431      100.253 
0.000729279     0.262662      98.7088 
0.000140636     0.495028      104.036 
0.00101144     0.339925      90.0000 
0.00133452     0.443806      97.7739 
0.00233529     0.620320      110.759 
0.00123217     0.243395      99.4042 
0.000738380     0.476838      122.990 
0.00167746     0.891718      109.670 
0.00176821     0.488166      124.985 
0.00150279     0.898473      110.842 
0.000189606     0.340529      86.5891 
0.000628386     0.459977      124.364 
0.00188812     0.320306      86.3734 
0.00144624     0.910821      109.241 
0.00131611     0.441522      95.1680 
0.00201273    0.0896014      26.3505 
0.00171423     0.753987      111.791 
0.000720020     0.463888      97.4354 
0.000483907     0.798447      112.081 
0.000565076     0.929974      108.830 
0.000636598     0.842640      112.294 
0.000320558     0.948461      108.449 
0.000780287     0.500058      126.887 
0.000233491     0.981011      106.578 
0.000954305     0.880267      111.293 
0.000579053     0.999726      106.258 
0.000206685     0.576231      110.346 
0.00152698     0.609116      113.217 
0.000215107     0.471709      126.396 
7.21655e-05     0.861421      111.783 
7.10843e-05     0.420705      92.7603 
0.00116893     0.440193      92.6380 
0.000135918     0.432889      123.690 
0.000136722      1.01919      105.940 
0.000199032     0.322129      82.9081 
0.000517906      1.02494      107.029 
0.00135139    0.0828082     -104.162 
0.000872030     0.101837      11.4755 
0.00133289     0.394577      120.515 
0.00141690     0.824622      112.808 
0.000413863     0.302778      82.4523 
0.000589274      1.04433      106.703 
0.000119770     0.527985      127.261 
0.000389674     0.555796      127.705 
0.000269179     0.604406      124.223 
0.000280167     0.780402      112.620 
0.000429353     0.540492      128.970 
0.000480438      1.05010      107.723 
5.46605e-05     0.512006      128.634 
0.000210815     0.306099      78.6901 
0.000197435     0.461703      94.9415 
5.18270e-05     0.460433      92.5220 
0.000254422      1.29010      97.1167 
0.000933634      1.01381      104.839 
0.000342308     0.989328      104.047 
0.000202077     0.331336      115.056 
0.000432562     0.357396      116.565 
0.000191785      1.03869      105.633 
0.000488030     0.220795      95.2649 
0.000364502      1.06303      106.401 
0.000122196     0.970413      104.326 
0.000225420     0.950796      104.628 
0.000589720     0.591236      113.962 
5.78209e-05      1.08248      106.098 
5.77316e-05     0.219863      90.0000 
0.000169793    0.0828082     -14.1622 
0.000278463     0.384685      117.915 
0.000824202      1.08805      107.085 
0.000785308     0.200353      90.0000 
5.49331e-05    0.0802914      0.00000 
0.000510686    0.0998015      0.00000 
0.000106004    0.0720098     -123.524 
0.000156296     0.936427      106.097 
0.000719647    0.0896014     -116.350 
0.000279897     0.917698      106.434 
0.000346563      1.10744      106.777 
0.000482625      1.27000      97.2300 
0.000142377     0.599425      115.667 
0.000571119     0.120062      0.00000 
0.00136003      1.29277      98.0078 
0.000301900     0.180093      90.0000 
9.20672e-05     0.543641      126.016 
0.000472020      1.09418      108.099 
0.000385168     0.617068      114.882 
0.000851628     0.904347      108.029 
0.000269512     0.404832      122.895 
0.000351261     0.439727      90.0000 
0.000710169     0.140322      0.00000 
0.000254562     0.101837     -101.476 
7.71247e-05     0.805984      113.367 
0.000285738     0.201375      84.2257 
0.000147006     0.100252     -126.784 
3.63957e-05      1.12613      106.491 
0.000107508     0.420705      87.2397 
0.000301335     0.709549      111.464 
7.00675e-05     0.610413      121.580 
3.50458e-05      1.14557      106.203 
0.000421090     0.422095      84.5935 
0.000349708      1.08817      110.422 
6.67745e-05      1.15984      104.998 
3.42039e-05     0.220795      84.7351 
0.000411253     0.832685      114.094 
9.85367e-05      1.16504      105.925 
9.77837e-05     0.116465     -148.973 
9.59522e-05     0.416183      125.237 
0.000247952     0.627763      120.611 
6.51737e-05     0.107434     -111.727 
6.43535e-05     0.223431      79.7468 
0.000327712     0.524894      130.361 
0.000178360     0.120062     -90.0000 
8.49539e-05     0.159832      90.0000 
0.000231014     0.247514      75.9638 
0.000138742     0.690733      112.079 
0.000289208      1.17870      104.753 
0.000784393     0.159832      0.00000 
0.000332494     0.145849     -164.176 
0.000116522      1.18381      105.666 
5.91854e-05      1.31209      97.8891 
0.000193126     0.481892      94.7340 
5.87801e-05     0.404436      81.4640 
0.000310640      1.40070      99.8711 
2.89918e-05     0.621263      123.172 
0.000241401      1.09540      111.415 
0.000312219     0.407936      78.6487 
0.000209673     0.638318      122.177 
5.49586e-05     0.496341      130.094 
0.000181230     0.141777     -81.7841 
2.65865e-05     0.427737      127.372 
0.000218149     0.253192      71.5114 
4.97101e-05     0.538237      132.005 
0.000268796     0.509625      131.837 
0.000220652     0.373757     -74.5128 
0.000146264      2.05542      100.645 
0.000455336      1.42066      99.7310 
0.000141922      1.07726      111.794 
0.000208010     0.654914      121.268 
0.000115042     0.841160      115.353 
0.000204159     0.164706     -166.027 
4.72412e-05     0.480675      92.4157 
0.000178235     0.161111     -82.7757 
6.64947e-05     0.503350      96.8496 
0.000110694     0.278155      68.9736 
0.000178323      2.12452      98.6538 
0.000280767     0.412220      75.9891 
0.000332529      2.05926      101.199 
0.000559165     0.398226     -72.4528 
2.29835e-05     0.822896      115.958 
0.000216667      1.20333      105.406 
0.000335268     0.523357      133.490 
0.000431348      1.08495      112.788 
0.000663629     0.676411      124.148 
9.61594e-05      1.05225      98.7368 
6.16267e-05     0.831621      117.166 
0.000192985      2.14381      98.5754 
0.000407135     0.181229     -173.581 
9.94117e-05     0.164706     -76.0271 
0.000149220     0.501338      94.5500 
0.000204372     0.260038      67.4310 
3.81807e-05     0.849697      116.542 
0.000192344     0.320306     -86.3734 
0.000283750     0.417588      73.2909 
0.000144959      1.78846      100.296 
7.53424e-05      1.04946      97.6840 
0.000364185     0.536971      135.000 
0.000429765      1.78507      99.6801 
5.62505e-05     0.841065      118.394 
0.000145233      1.43990      99.5998 
0.000756976     0.184432     -77.5470 
0.000377814     0.180093      0.00000 
1.83852e-05      2.06329      101.751 
0.000103958      1.08147      93.1820 
0.000245275      2.03938      101.310 
8.53823e-05     0.850886      119.594 
5.16389e-05      2.04345      101.867 
0.000125758     0.286050      65.1829 
0.000508122      2.16693      99.0252 
0.000474822      1.09265      113.731 
4.99852e-05      1.45988      99.4672 
0.000282827      2.20633      112.370 
0.000169186     0.404795     -69.7174 
0.000130971      1.02938      97.8348 
0.000295918     0.526180      98.7772 
0.000353408      1.10079      92.0705 
0.000535578      2.29890      100.532 
1.63886e-05      1.77304      101.053 
4.78337e-05      1.20887      106.331 
6.35622e-05      1.76927      100.409 
0.000122858      1.47986      99.3381 
0.000394904     0.620320      69.2412 
4.71814e-05     0.858942      117.752 
0.000118008     0.423858      70.6669 
3.02967e-05     0.860688      120.724 
0.000165518     0.411820      129.084 
0.000129361      1.71711      104.838 
0.000339580     0.660356      125.099 
0.000515826     0.551483      136.489 
4.44027e-05      1.23409      106.970 
7.32643e-05     0.869143      113.023 
0.000415214      2.46089      109.468 
0.000427339     0.201375     -174.226 
0.000131507     0.404795      69.7174 
9.64789e-05     0.868561      118.934 
1.44166e-05     0.453478      131.445 
0.000306485      2.23211      112.660 
5.51242e-05      1.23993      107.832 
0.000104769     0.268467      63.4349 
0.000151779      1.49912      99.2171 
0.000174644     0.430710     -68.2171 
1.34870e-05     0.523357      136.510 
2.62634e-05     0.538237      137.995 
0.000261826     0.161111      7.22432 
3.86535e-05      1.24628      108.719 
0.000138701      2.03551      100.751 
0.000559697      1.84632      140.260 
1.29052e-05      2.12167      98.1330 
0.000331626      1.69826      105.006 
3.78524e-05     0.553458      139.399 
0.000293354      1.10025      91.0551 
6.13317e-05     0.878166      120.049 
9.19797e-05      2.09882      97.6637 
4.89251e-05      1.27791      110.127 
5.81239e-05     0.905232      96.3297 
8.12555e-05     0.568413      140.679 
0.000275843     0.411965      67.1714 
2.31755e-05      1.37736      99.1852 
6.90176e-05      1.28502      110.975 
0.000261059     0.278118      59.6991 
0.000171425      1.33216      97.7695 
0.000115580     0.888484      121.180 
3.28553e-05     0.776764      78.1256 
0.000412620      2.24000      113.138 
0.000531375     0.438632     -65.7588 
3.07890e-05     0.704572      124.587 
8.42232e-05      1.29241      111.814 
0.000111385      1.49601      98.4512 
3.19691e-05     0.566349      137.900 
3.22449e-05     0.632861      71.5436 
6.91923e-05     0.903290      95.0996 
7.60643e-05     0.584228      141.938 
2.94200e-05     0.858831      114.796 
4.06507e-05     0.781185      76.6712 
0.000266205      2.63869      116.572 
0.000126913      1.29746      118.536 
9.47265e-05      1.85885      139.798 
0.000147191      1.78178      99.0379 
2.89265e-05     0.319665     -90.0000 
7.03938e-05      2.09621      97.1148 
0.000169239     0.626742      73.3008 
4.03718e-05     0.732771      124.992 
0.000350534      2.37421      96.2782 
9.95419e-06      2.01276      100.309 
6.36570e-05      2.00923      99.7402 
0.000219023     0.948556      55.2790 
0.000345864     0.456404      151.202 
5.35180e-05      1.29979      112.612 
0.000272532      2.46746      109.895 
5.48401e-05     0.786103      75.2342 
0.000182462     0.145849      15.8239 
0.000204386      2.21412      112.854 
3.62256e-05     0.899141      122.284 
2.65226e-05      1.51912      99.0947 
0.000334362     0.687989      125.545 
2.47222e-05     0.877265      114.241 
9.12670e-06      2.03646      135.000 
9.11810e-06      1.75941      98.4861 
6.88348e-05      2.02218      135.406 
0.000222240      1.30726      119.317 
0.000104355      1.49327      97.7107 
6.68538e-05      1.75664      97.8567 
0.000199667     0.901714      93.8172 
0.000126144      1.30946      97.0110 
0.000197341     0.915694      121.632 
4.63178e-05      2.10062      103.763 
9.26287e-05     0.791300      73.8680 
2.42830e-05     0.320306     -93.6266 
9.47138e-05     0.220795     -174.735 
1.60795e-05     0.625863      63.4349 
0.000125447      1.08000      91.0749 
9.15783e-05      1.98591      99.2630 
0.000144580      2.02311      136.202 
5.18658e-05      1.31124      111.485 
2.29203e-05      1.73152      96.6446 
0.000149902     0.219863      180.000 
3.37027e-05     0.399806      126.913 
0.000275435      2.64748      116.950 
0.000110256     0.600310      143.130 
0.000114070      2.35382      114.604 
0.000114624      1.72929      95.9778 
0.000108006     0.322129     -97.0919 
2.79376e-05     0.640096      75.5402 
6.60979e-05      1.46897      96.2465 
0.000216981     0.288454      56.3513 
2.64843e-05     0.635182      61.8001 
0.000165714     0.420241      64.6246 
0.000103674     0.765732      109.820 
0.000232274     0.164706      13.9729 
0.000150846     0.797167      72.4690 
1.93407e-05      1.49068      96.9390 
0.000188577      1.31851      112.274 
0.000145662      2.11957      103.638 
0.000106692     0.635505      77.2437 
0.000108076      2.09389      96.5851 
0.000164570      1.31730      120.085 
8.51164e-05      1.70362      105.665 
0.000154697      2.00914      136.619 
1.23345e-05      1.79219      100.934 
0.000124402     0.926075      122.660 
0.000117594      1.87564      97.3553 
3.45671e-05      1.67870      105.185 
1.17842e-05      1.06030      90.0000 
0.000175249      1.46698      95.4890 
1.70660e-05      1.79614      101.568 
5.88571e-06      1.12103      92.0331 
1.71691e-05     0.644631      60.2717 
0.000135047      2.49274      110.181 
1.13233e-05      1.04004      90.0000 
1.11535e-05      1.14142      93.0148 
1.52951e-05     0.981842      93.5053 
4.87451e-05     0.716267      125.921 
5.61245e-05      1.04023      88.8840 
6.25191e-05     0.994616      59.8369 
1.06393e-05      1.70713      95.3723 
9.49521e-05      1.80016      102.176 
3.84247e-05     0.638318      57.8233 
6.22954e-05      1.07414      114.166 
1.85738e-05     0.360880      123.723 
3.62114e-05      1.16287      93.9592 
8.95602e-05      1.70541      94.7197 
5.10949e-06     0.885454      115.392 
0.000125497     0.240124      180.000 
4.09516e-05     0.932586      54.5963 
5.47996e-05     0.551483      133.511 
5.03588e-05      1.87316      96.7407 
9.60597e-05      2.02336      136.999 
3.93225e-05      1.01998      88.8618 
7.28747e-05      1.39630      128.015 
1.65227e-05      1.18457      94.8330 
3.43090e-05     0.784114      109.337 
5.32410e-05      1.32496      118.888 
2.73790e-05     0.649334      56.3099 
1.20037e-05     0.943196      121.996 
2.63291e-05      2.30254      101.010 
2.63621e-05      2.38069      114.845 
5.22895e-05      1.02055      87.7666 
-0.000111071      1.54076      119.561 
2.99946e-05      1.68412      105.851 
2.50294e-05     0.954085      123.028 
1.43119e-05     0.777872      72.0195 
3.70310e-06      1.42904      107.921 
2.13867e-05     0.300155      53.1301 
1.76674e-05      1.43540      108.691 
7.12814e-06      1.26769      96.3552 
2.11211e-05      1.40887      128.665 
1.05714e-05     0.665655      57.2415 
1.04481e-05     0.189835     -71.5651 
3.50937e-06      1.80454      102.805 
6.88347e-06      2.49980      110.616 
3.42959e-06      2.22207      113.336 
3.41753e-06      1.70920      106.319 
-0.000506625      5.98949      169.029 
-0.000729270      2.61452     -119.317 
-0.000369887      12.2762      41.0370 
-0.000120864      6.18136     -80.6875 
-0.000287370      9.81583     -157.982 
7.84548e-05      7.34562     -2.18370 
-0.000183738      10.8830     -114.542 
-0.000150035      9.37794      12.9420 
0.000114460      10.5104     -40.5991 
0.000439582      7.32537     -2.18974 
0.000375261      8.10171     -48.2025 
0.000215067      10.3081     -120.296 
-0.000310915      6.18455     -80.5091 
-0.000272013      10.2215      90.8960 
0.000172107      5.87341      93.9046 
0.000398207      10.8447      111.646 
0.000276186      10.1399     -134.760 
0.000178299      3.57968      50.4436 
-0.000335865      4.99660      126.044 
0.000137006      7.77319     -42.1829 
-0.000266566      10.1773      76.5918 
0.000196520      7.02336     -118.027 
0.000200244      6.88866     -10.2021 
-0.000232479      5.82004      89.8005 
-0.000198981      5.49272      32.3613 
0.000333549      8.78421      29.3066 
0.000137482      6.27160      104.212 
0.000294915      10.2476     -151.434 
0.000322381      12.6580     -50.4506 
-6.98704e-05      9.25611      122.112 
-0.000103314      9.82958      167.066 
0.000323395      10.6882     -126.248 
3.53704e-05      2.28355     -71.0947 
-0.000226957      2.19215     -154.602 
0.000195078      6.98493      177.870 
-0.000224602      1.67374      24.7267 
0.000255920      2.29019     -70.6152 
-0.000194081      9.58589     -124.285 
0.000129087      10.4977     -40.5182 
-0.000130917      5.50290      11.1092 
-0.000285809      8.64236     -40.2139 
-9.59586e-05      5.96960      168.992 
9.91102e-05      4.49083     -62.4073 
-0.000159566      12.2729     -126.384 
-0.000220682      10.5761     -141.525 
-6.47842e-05      4.93990     -84.8930 
3.28972e-05      6.29623      104.346 
-0.000155092      11.3042      142.766 
0.000155315      9.66385     -84.5373 
6.22335e-05      8.04721     -131.571 
-0.000122954      9.26649      122.214 
-9.21505e-05      9.82507      167.181 
0.000122752      4.43132     -120.960 
3.18549e-05      2.30861     -70.7759 
0.000124185      10.2008     -119.480 
6.18762e-05      10.5438     -160.843 
-0.000121801      10.6110      144.513 
6.19995e-05      12.2260     -56.8815 
-9.07769e-05      8.18267      102.133 
6.11644e-05      3.56729      50.6852 
-9.08405e-05      5.40261     -45.0000 
9.05956e-05      6.40633      105.943 
0.000149618      8.82084     -51.2610 
-9.01973e-05      8.89565     -119.792 
-6.02352e-05      3.84666     -16.9326 
-3.07530e-05      4.94174     -84.6591 
-6.03116e-05      7.43986      150.886 
-3.06717e-05      12.2094      139.184 
-6.02656e-05      8.22384     -178.191 
3.04884e-05      8.86516     -140.492 
-5.93815e-05      4.86288     -88.1165 
3.02074e-05      12.7044     -140.623 
-3.00023e-05      10.9015     -114.497 
2.99026e-05      6.29124      104.167 
5.87694e-05      1.43380      98.0326 
2.99212e-05      7.22148     -77.8470 
-5.90927e-05      12.2241      139.244 
-5.42218e-05      8.03798     -165.445 
2.97409e-05      5.54139      112.492 
5.87515e-05      8.80189      29.2420 
2.97232e-05      3.59829      114.283 
5.86838e-05      10.1909     -119.381 
2.94732e-05      11.5754     -38.3350 
2.93869e-05      7.75288     -80.1976 
-2.93027e-05      4.96309     -84.4471 
-2.92682e-05      11.6413     -140.786 
-2.92440e-05      8.26903     -65.4188 
2.90551e-05      8.35878      165.165 
2.88673e-05      5.09213      111.427 
-0.000327222      5.60862     -41.8220 
-0.000138808      11.0169      44.9255 
-0.000130779      10.0804     -174.879 
7.93587e-05      10.0953     -38.3206 
0.000284860      9.52822      160.119 
0.000117950      5.25000      49.6376 
0.000297008      7.60192     -78.9252 
-0.000201285      8.03291     -165.585 
-0.000119326      4.53736     -80.8648 
0.000146875      10.0256     -24.2669 
0.000119945      6.77701     -136.795 
0.000167014      10.0833     -38.2336 
0.000122963      9.88798     -22.7276 
-9.69966e-05      10.0821     -100.285 
-0.000216699      10.6240      46.4481 
-0.000568560      12.5567      53.5492 
-0.000141411      10.4246      59.6955 
2.54667e-05      5.23690      49.8065 
7.09192e-05      10.2761     -66.7261 
-2.51881e-05      13.3787     -131.243 
9.30294e-05      7.31429     -163.153 
-6.96712e-05      9.90641     -177.916 
0.000160961      10.7867     -116.424 
2.50390e-05      8.47937     -158.699 
-0.000114058      11.2842     -143.575 
-0.000360554      10.0636      145.361 
7.03315e-05      4.16536     -83.6598 
4.75389e-05      6.87054      30.8199 
-6.53464e-05      9.07085      110.792 
2.43571e-05      9.59065     -77.9647 
-0.000114409      7.50944     -65.6195 
-8.87890e-05      10.1911      132.613 
-4.66443e-05      11.0308      44.8539 
-0.000128783      11.3206      57.9934 
-0.000164863      13.3654     -131.178 
2.39621e-05      5.20884      49.8267 
-4.67076e-05      13.2571     -129.430 
-0.000365407      10.6088     -122.369 
-0.000368227      3.23248      107.648 
0.000161527      8.46762     -158.526 
0.000282324      5.14422     -84.4250 
-0.000148265      13.4020      131.614 
-0.000105623      10.4937      62.4088 
8.25263e-05      7.73725      45.9431 
0.000270626      9.61046     -77.9899 
2.33018e-05      13.5220      41.1638 
-0.000119394      8.88374     -125.192 
-6.57191e-05      2.08386     -127.200 
8.45228e-05      8.99638     -114.286 
0.000103120      9.60746     -46.7723 
7.95612e-05      10.9215     -129.726 
-0.000119379      10.4345      59.6030 
-4.34997e-05      3.46353     -100.991 
-4.27361e-05      7.53626     -65.5428 
4.21460e-05      1.95409     -22.8924 
-6.45312e-05      7.27368      96.9505 
-2.23740e-05      11.9755      48.7242 
8.53551e-05      6.41529      106.856 
4.36402e-05      13.5335      41.3449 
-2.18200e-05      4.55736     -80.9053 
-2.18188e-05      10.0289     -9.87462 
-0.000122967      11.9902      48.7857 
0.000131064      12.3841     -50.2411 
6.27045e-05      6.49564      165.195 
-7.61419e-05      13.2443     -129.362 
-6.00505e-05      3.83811     -15.4084 
-4.04310e-05      10.0785     -100.172 
2.11376e-05      6.35099      17.4073 
-0.000160821      12.0804     -136.341 
2.11063e-05      4.18550     -83.6904 
-5.83629e-05      3.93741      30.8664 
-3.89776e-05      10.2329      132.706 
2.07854e-05      10.1039     -82.6095 
-5.90312e-05      12.8464      136.640 
-0.000478098      12.9595     -128.797 
9.48158e-05      13.5183      41.4016 
-9.02382e-05      12.2851      130.511 
0.000267975      10.7954     -116.517 
0.000657139      12.7859      52.1805 
0.000236583      10.1897     -162.169 
-2.02905e-05      7.08406     -56.9833 
-0.000125140      2.06835     -127.527 
-0.000329780      10.6137      144.124 
7.28517e-05      13.1098     -135.308 
3.88597e-05      4.16765     -83.3830 
0.000167229      6.43468      106.804 
-5.43251e-05      11.0451      44.7798 
0.000286091      6.36961      17.3548 
5.22255e-05      8.73488     -83.5582 
5.58935e-05      10.2838     -66.6263 
-8.89304e-05      4.85368      148.994 
-1.98830e-05      9.11107      16.8425 
0.000115623      8.72287     -7.90635 
-1.98340e-05      11.2958     -143.495 
-0.000107650      11.2790     -26.4287 
-0.000190474      10.2760     -167.183 
0.000103330      10.1065     -82.4956 
-3.84338e-05      10.5795     -118.697 
-3.81218e-05      10.5027      62.3145 
0.000219778      10.4624     -23.4301 
8.24882e-05      11.2750     -46.5101 
-3.83544e-05      7.25596      97.1228 
8.92550e-05      8.01329     -14.4514 
7.36778e-05      6.39417      165.135 
-8.97468e-05      11.8264     -124.039 
1.92029e-05      9.51953      101.757 
-5.53329e-05      10.9155     -62.0274 
8.54682e-05      9.67348     -134.833 
-0.000104121      8.49460      122.306 
-0.000168431      9.06664      16.7987 
0.000164665      9.87834     -93.4840 
-3.61100e-05      3.45973     -100.662 
9.72333e-05      10.2226     -93.8132 
-0.000428837      12.0036      48.7130 
-1.88271e-05      9.92594     -178.037 
-0.000105983      11.3121     -143.557 
-3.55733e-05      11.8410     -141.445 
3.61685e-05      9.28547     -56.6875 
5.32299e-05      10.9668      148.192 
8.20632e-05      12.9165     -46.5677 
0.000464620      12.3193     -45.8563 
-3.45074e-05      4.94367     -84.4253 
-3.60061e-05      7.25850      97.2815 
-3.53455e-05      8.89752     -58.4172 
-1.82803e-05      9.03991     -173.394 
1.82438e-05      10.2214     -93.7041 
3.50313e-05      6.76479      83.3819 
1.81274e-05      9.86017     -90.2311 
5.19805e-05      6.88526     -37.8016 
-0.000163059      11.2261     -62.7498 
1.79778e-05      7.91994     -28.5052 
-5.05261e-05      10.5876     -118.549 
-0.000494332      9.41988     -109.857 
0.000132083      12.0158     -40.4790 
0.000157226      4.90383      110.279 
0.000163053      9.03623      56.5541 
-0.000178608      11.3914      51.0561 
6.76752e-05      7.28658     -121.988 
-6.40899e-05      6.41791     -151.118 
3.43774e-05      10.1008      70.8126 
3.45509e-05      5.54018      170.229 
0.000131635      11.5717     -145.705 
-0.000212916      10.0942     -100.039 
1.74025e-05      11.7972     -51.4017 
-1.73824e-05      7.24357      97.6139 
9.17765e-05      12.2111     -138.321 
0.000107238      9.86027     -90.3488 
-3.33161e-05      11.4355     -131.385 
0.000107150      8.75730     -83.4413 
1.72844e-05      6.88094      30.9648 
2.86643e-05      12.0438     -40.4871 
6.20072e-05      10.9771      148.106 
-0.000357694      7.69693      114.564 
-4.81787e-05      10.8126     -41.3254 
-7.91137e-05      10.8881     -62.0715 
9.19846e-05      1.48627     -72.7909 
-1.69501e-05      7.24628      97.7726 
-6.05265e-05      7.12384     -109.859 
1.69153e-05      8.22587      159.801 
-0.000158104      8.54917      99.1515 
3.24227e-05      7.71718     -79.9991 
0.000100864      7.96936     -148.025 
-1.67891e-05      7.24953      155.555 
3.25448e-05      10.1930     -6.87494 
-0.000116242      10.9808      54.8633 
-3.24517e-05      9.06003     -173.408 
4.86361e-05      7.74862      87.3357 
5.64100e-05      9.59360     -46.8605 
-3.03258e-05      6.49235     -66.1962 
7.24654e-05      13.9936     -136.795 
5.84311e-05      13.5317      41.4660 
-1.64304e-05      7.10735     -87.4222 
3.23722e-05      9.45417     -30.0918 
0.000116056      5.56348      170.066 
-6.24171e-05      7.22695      97.7936 
6.65823e-05      6.37459      165.089 
-3.14430e-05      9.87572      172.903 
7.16275e-05      9.27477     -56.7882 
1.62000e-05      9.87491      55.3137 
-1.61674e-05      9.42678     -109.973 
-0.000117235      12.0446      143.645 
4.68474e-05      12.1563     -127.380 
-6.20102e-05      9.63295      109.149 
-3.13910e-05      12.2044     -135.067 
-6.36036e-05      8.15936     -70.6769 
-2.88921e-05      9.60397     -111.757 
-1.59217e-05      3.47597     -100.272 
7.09886e-05      7.99440     -14.4863 
-1.58749e-05      4.16288     -72.9565 
4.44288e-05      10.0051     -108.651 
0.000169260      8.09694     -74.9656 
5.61058e-05      11.8099     -51.3248 
8.61203e-05      8.84458      172.071 
4.46288e-05      6.76716      83.2115 
4.54810e-05      10.0944      70.9172 
5.93600e-05      10.6645     -106.225 
-2.93555e-05      9.23669      123.072 
5.90991e-05      7.27587     -121.853 
-0.000206163      11.1155      132.157 
0.000110755      9.60642     -78.1037 
-0.000170754      11.6605     -140.987 
3.02090e-05      6.08114     -120.869 
-1.55347e-05      10.0819     -60.7888 
2.96742e-05      10.2868      40.3461 
2.90110e-05      8.25240      168.960 
4.41247e-05      10.0986     -38.1651 
-0.000158467      13.2319     -129.297 
-0.000177175      10.8065     -119.128 
1.54019e-05      7.95865     -148.149 
-2.88195e-05      5.62373     -41.6843 
-7.31279e-05      12.2412      36.0276 
-2.98855e-05      7.12778     -87.2665 
0.000171550      9.47171     -30.0303 
-5.79904e-05      11.8151     -123.958 
-4.46786e-05      3.23868      107.990 
-1.53484e-05      11.2608     -26.4746 
5.79465e-05      7.41312     -103.099 
0.000263983      13.5165      41.5229 
1.51882e-05      10.9065     -129.791 
4.84069e-05      11.0477      143.318 
8.24912e-05      7.72838      87.3287 
-8.27402e-05      7.79329      51.0421 
1.51053e-05      8.20652     -99.2556 
-1.50540e-05      10.5597     -35.2859 
-1.50642e-05      10.9925      54.7770 
-0.000142402      13.3526     -131.115 
2.79075e-05      7.59805     -79.0751 
0.000368822      12.3384     -129.212 
-1.49501e-05      9.65014      147.957 
-0.000100736      9.73354     -113.880 
2.90349e-05      7.71369     -80.1473 
1.48535e-05      12.0284     -40.5497 
-5.68718e-05      12.8813      141.492 
-0.000203223      2.08076     -127.969 
0.000334154      13.9912      43.5527 
-0.000138622      10.8976     -61.9774 
-1.47564e-05      11.8499      57.1935 
-1.47240e-05      10.2748      132.792 
-9.50615e-05      9.63962      109.263 
8.95207e-05      11.0321      143.257 
-9.24054e-05      12.1763     -135.065 
-2.81062e-05      10.7143      23.3098 
-6.90943e-05      9.89582      172.918 
6.72731e-05      13.1102     -135.186 
-1.44446e-05      10.7461      109.007 
-0.000177490      9.31115     -158.449 
1.44551e-05      8.30909      63.2498 
0.000199299      12.1686     -127.456 
-5.38341e-05      7.20687      97.8154 
0.000156781      11.6443      118.633 
1.43117e-05      7.25867     -121.937 
-0.000201647      13.6504      46.2473 
9.21015e-05      10.3894      113.604 
-0.000101043      11.8389      57.2759 
-6.33531e-05      9.63297      147.893 
6.64777e-05      10.2604      115.767 
1.41554e-05      5.26315      49.4696 
-4.09190e-05      10.6828     -41.5089 
-1.40808e-05      8.50545      122.421 
6.34114e-05      6.08820     -120.608 
4.11717e-05      12.6722     -51.0859 
-2.70212e-05      10.7463     -159.407 
-6.26264e-05      9.40991     -63.7619 
-1.40110e-05      11.1323     -50.9065 
3.83314e-05      9.68724     -134.915 
5.36887e-05      10.4640     -109.889 
-4.05604e-05      10.4828      63.7303 
1.38792e-05      10.7959     -161.530 
0.000267579      12.2920     -146.413 
2.62769e-05      6.76280     -136.682 
2.53871e-05      10.1292     -82.3969 
1.37919e-05      7.70913      46.1595 
0.000323092      10.1813     -119.286 
1.37395e-05      6.90069     -37.7023 
-0.000261771      7.10829     -87.2590 
-0.000111130      11.6374     -132.353 
0.000109865      13.2073     -47.5167 
-7.90817e-05      12.5502      48.2308 
-3.81261e-05      4.16864     -72.7001 
-2.62052e-05      11.2699     -26.5668 
-2.56793e-05      10.2897     -98.3824 
-2.59806e-05      10.4513      59.6571 
-2.59913e-05      8.97129     -79.4645 
-1.35006e-05      8.53514      11.6251 
-0.000200221      12.2254      36.0814 
3.95058e-05      7.24836     -121.806 
0.000198933      11.5798     -129.462 
1.33290e-05      8.31822      63.1252 
3.91746e-05      12.5430      49.6564 
0.000204041      13.6633      42.2132 
-9.12061e-05      10.6100      46.5274 
-0.000237513      12.5819     -139.448 
-5.05809e-05      11.4365      61.5954 
2.60905e-05      11.1288     -119.145 
0.000100232      13.3647     -135.425 
-4.83126e-05      12.2598     -38.3093 
7.14305e-05      6.10017     -119.678 
-9.57992e-05      12.8935      141.425 
0.000261331      14.3970     -44.7741 
0.000616863      13.8858      132.606 
5.60416e-05      13.9788     -136.738 
5.03302e-05      7.43213     -103.065 
-2.57681e-05      7.37847      80.6411 
-1.31498e-05      8.89831     -120.083 
-3.49652e-05      10.7398      108.908 
7.16705e-05      3.02781      126.941 
6.28454e-05      8.22329     -99.0936 
-3.72051e-05      12.9421      44.0603 
1.30262e-05      7.73713     -80.0252 
-7.28728e-05      12.5367      48.2998 
-0.000241524      12.0484      143.777 
9.49545e-05      10.4445     -23.4726 
-2.49364e-05      8.54187      29.1455 
7.31412e-05      12.6849     -51.0147 
-2.50870e-05      6.24551     -64.9960 
2.52062e-05      13.3245      48.8954 
0.000528349      10.7870     -116.660 
5.97640e-05      6.42885      106.631 
-0.000167298      11.4097      61.6382 
2.50706e-05      7.71609     -18.9072 
7.30974e-05      13.4245      46.3883 
-2.52444e-05      10.0563      64.8098 
-1.27451e-05      11.4221     -131.308 
-7.22039e-05      9.91271      173.048 
-0.000139511      14.1862     -45.8551 
2.49814e-05      8.83956     -144.767 
2.50054e-05      8.96243     -116.509 
1.26852e-05      4.30201      1.86920 
0.000231504      12.5298      49.7270 
0.000154405      12.3839      53.0739 
-5.44221e-05      10.6682     -41.5783 
-4.67043e-05      10.0407     -90.5695 
5.90321e-05      7.26559     -121.722 
7.62453e-05      10.4456     -109.925 
1.24753e-05      11.3000      119.241 
1.24448e-05      8.13921      86.0563 
7.57122e-05      11.5164      145.757 
-3.61911e-05      13.3886      131.549 
-1.24094e-05      8.99257     -42.0270 
5.82938e-05      9.82332      119.383 
-3.47295e-05      10.0477      64.9143 
-0.000130391      10.3914      24.4422 
-0.000128053      13.2191     -129.229 
-3.43733e-05      7.13075     -110.012 
-2.39868e-05      3.67255     -9.71637 
-5.57171e-05      11.2877     -116.747 
-4.62536e-05      8.88144     -120.146 
-1.22096e-05      2.79094     -152.698 
-0.000149989      9.62050      109.303 
-1.22037e-05      10.4741      63.8260 
-9.00008e-05      9.00763     -41.9407 
-0.000174406      11.5850     -133.811 
0.000292179      11.3082      119.104 
6.74386e-05      10.2517      115.665 
-4.61701e-05      10.9696      54.9467 
-3.48094e-05      13.7177      45.1175 
4.59281e-05      8.89558     -135.092 
-6.87943e-05      7.33527     -42.1266 
0.000170521      8.94430     -116.567 
-1.19891e-05      6.44961     -77.6454 
1.19727e-05      8.27229      168.987 
-2.30646e-05      7.37532      80.7907 
1.19411e-05      4.87878      110.143 
-1.19120e-05      7.18680      97.8374 
1.19146e-05      13.3526      48.8850 
0.000110259      10.3973      113.703 
3.48148e-05      13.9633     -136.568 
-0.000111766      10.0293      64.8653 
-6.68812e-05      9.08603      16.7618 
-1.18757e-05      12.5237      48.3665 
1.18549e-05      7.61721     -79.1030 
2.27654e-05      7.83277     -33.1237 
0.000113733      11.9228     -128.735 
3.38227e-05      8.32788      139.579 
9.28714e-05      14.1284     -134.484 
-5.59882e-05      7.36259      82.5099 
8.35130e-05      8.84428     -144.943 
7.63443e-05      8.46837      78.5566 
-2.27649e-05      2.80896     -152.887 
1.17149e-05      13.2996     -133.294 
5.50716e-05      13.1096     -135.063 
-0.000573068      14.2008     -45.9120 
-3.34491e-05      7.76480      51.0643 
-2.27440e-05      12.9574     -142.210 
4.29840e-05      11.5664     -145.566 
0.000330097      13.3503     -135.364 
2.27003e-05      5.17642     -36.5177 
7.57056e-05      14.0293     -45.2297 
-3.24774e-05      4.17471     -72.4346 
-7.63189e-05      8.91176     -143.026 
-0.000106674      10.3730      24.4885 
0.000105772      11.9080     -57.8312 
-1.15238e-05      7.27469      98.2195 
-4.35938e-05      13.3734      131.606 
-3.38602e-05      3.67602     -10.0276 
-0.000261656      10.4954      138.165 
0.000203300      10.2581      94.9224 
-1.15005e-05      11.2168     -62.8418 
0.000182545      9.16171      60.5817 
-1.14789e-05      7.93413      115.855 
1.14642e-05      7.95218     -147.948 
0.000200206      12.3335     -45.7888 
0.000170582      12.0330      148.318 
-4.46642e-05      12.5102      48.4358 
0.000118074      12.6692     -50.9570 
0.000124348      10.9751      134.410 
-2.20444e-05      8.84142      90.9094 
-1.13301e-05      2.79994     -152.343 
1.13344e-05      7.68319     -136.793 
-3.28886e-05      12.2056      44.4022 
-1.13663e-05      10.7653     -159.445 
0.000111869      9.80531     -102.845 
-1.13026e-05      10.2345     -77.7022 
0.000317333      12.3728     -47.6202 
-0.000146426      13.6644      46.1859 
-0.000164315      9.93282      173.062 
-1.12654e-05      13.5240     -43.5612 
3.28412e-05      9.26341     -88.3939 
3.15828e-05      10.6702     -106.330 
-1.12155e-05      9.73508     -113.615 
0.000106688      11.5326      145.812 
3.21526e-05      13.3392      48.9505 
-2.18664e-05      7.95237      115.791 
8.22234e-05      13.4111      46.4487 
1.11712e-05      13.5239      41.0427 
6.13208e-05      7.94145     -148.072 
9.47163e-05      9.06389      56.5217 
-0.000158993      13.1102      134.814 
2.16268e-05      9.54657      160.159 
-3.25894e-05      5.14802      150.943 
2.12608e-05      12.0312     -40.4164 
-1.09686e-05      10.8120      33.0735 
2.15329e-05      6.90704     -168.983 
-3.17984e-05      10.4652      63.9255 
-0.000193664      10.2607     -167.047 
-0.000193376      3.65681     -10.0809 
0.000325913      14.3827     -44.7168 
-0.000100086      13.7320      45.0576 
2.15613e-05      7.67190     -18.8603 
-3.14505e-05      11.1305      132.087 
-2.11470e-05      10.2304     -77.8090 
-1.08685e-05      10.1145      97.8416 
5.12939e-05      12.5364     -35.3882 
1.08305e-05      8.13938      83.0846 
1.07998e-05      12.9026     -46.6331 
1.07981e-05      13.4953      41.0343 
7.22451e-05      10.9930      117.172 
-1.07581e-05      12.1625     -135.000 
-2.06263e-05      6.50025     -66.0389 
7.99138e-05      10.4337     -23.6152 
1.07037e-05      11.1465     -119.095 
7.96097e-05      11.8333     -39.5813 
-5.03262e-05      11.4001      61.7279 
-5.95687e-05      9.59505     -175.096 
0.000139575      12.7984      52.1088 
1.06358e-05      1.96176     -23.4173 
-2.09832e-05      11.6477     -141.064 
3.12114e-05      7.40856     -102.947 
-3.12024e-05      9.66090      147.855 
-3.08904e-05      10.9579      55.0334 
-4.09503e-05      9.80302     -149.196 
-1.06143e-05      12.4968      48.5053 
-5.99365e-05      13.0678     -130.344 
7.59314e-05      8.89514     -135.273 
-1.05806e-05      8.89125     -120.255 
-2.04254e-05      10.0409     -90.6851 
2.07525e-05      11.1375     -58.7357 
-2.04505e-05      8.88756      107.416 
-8.94282e-05      12.5447      53.6236 
-4.95158e-05      2.81791     -152.534 
5.85638e-05      11.8384     -51.3096 
4.97888e-05      7.35336     -68.4592 
-1.05398e-05      6.62048     -53.4756 
-1.05391e-05      12.9276      44.1228 
9.40062e-05      13.4806      41.0887 
1.05295e-05      11.2200      31.3673 
-0.000223105      12.5687     -139.518 
0.000154455      9.55993      134.831 
3.04113e-05      7.25496     -121.586 
0.000143495      13.1791     -47.5198 
1.04855e-05      10.2918     -66.5228 
1.04948e-05      10.6961     -52.9814 
-0.000187408      11.8481      56.1499 
-2.06268e-05      4.94170     -128.260 
5.80322e-05      12.4734     -140.465 
-2.98969e-05      7.32025     -42.2330 
-4.00068e-05      9.02068     -42.0329 
-6.99842e-05      11.8594      56.0686 
-5.95435e-05      5.13032      150.833 
5.04266e-05      2.08603     -32.4838 
-2.03694e-05      7.36525      82.3537 
1.03750e-05      13.5019      41.5777 
3.99221e-05      9.28426     -88.2724 
-1.03347e-05      5.14887     -109.275 
3.99352e-05      10.9857      21.8007 
5.01361e-05      10.5029      76.6786 
-1.98926e-05      10.1346      97.8259 
1.98788e-05      8.22023     -98.9593 
5.89214e-05      14.2840     -135.568 
1.02979e-05      7.73365     -80.1730 
-8.69857e-05      12.4839      48.5724 
7.79613e-05      13.5392      40.9864 
-3.88813e-05      12.9093      141.481 
6.80354e-05      9.87713     -93.3667 
4.01814e-05      10.8766      50.8969 
9.67635e-05      10.2429      115.563 
-0.000150326      12.5300      45.3882 
1.02241e-05      9.60725      59.0577 
0.000216411      13.6783      42.1561 
-4.89229e-05      11.0679      39.5007 
-1.96693e-05      8.57167      99.2644 
0.000224839      14.0059      43.4956 
0.000123972      8.88515      88.0641 
-0.000107869      10.0208      64.9701 
-2.95328e-05      12.5637      48.1618 
-1.97173e-05      9.74322     -113.724 
5.85381e-05      9.74012      165.737 
1.01557e-05      7.64947      31.5305 
6.75764e-05      4.35554     -116.446 
-4.82541e-05      10.4489      168.517 
-5.87912e-05      9.08021      16.6394 
-7.71180e-05      7.33338     -42.3459 
6.71315e-05      6.02795      82.7556 
-6.78280e-05      13.2009      46.7805 
4.86543e-05      11.3145     -119.780 
2.88591e-05      10.2999     -66.4194 
0.000237885      11.5949      120.013 
-2.80542e-05      9.58061     -124.453 
-1.97655e-05      9.86909     -84.3011 
-3.77173e-05      11.0999      53.1317 
-0.000142334      10.7562      65.1495 
-1.94846e-05      10.0228      88.6272 
0.000170592      12.6815     -50.8885 
2.94431e-05      9.00865     -27.6430 
1.96623e-05      10.4054      113.805 
-9.95138e-06      7.15577     -110.105 
-4.70442e-05      10.4296      64.0728 
4.83772e-05      11.6747     -119.110 
2.90975e-05      7.75985     -90.2937 
-9.94453e-06      11.2965     -116.836 
9.93218e-06      8.32718      63.3126 
-6.71518e-05      9.68324     -108.549 
-9.94126e-06      9.36583     -20.3675 
0.000142205      12.0227      148.397 
-9.92044e-06      8.92079      103.350 
-1.95620e-05      8.57261      67.5047 
2.92282e-05      12.4300      52.1899 
-1.95489e-05      8.90840     -142.846 
8.53494e-05      12.3351     -129.342 
9.14786e-05      8.33749     -107.305 
-3.75601e-05      10.6100     -27.6289 
9.86068e-06      14.0150     -45.2885 
-9.81681e-06      12.9698     -142.140 
4.54748e-05      6.87979     -101.571 
6.61889e-05      13.2585      43.1057 
9.81366e-06      13.8721      132.545 
2.91104e-05      10.7782      123.957 
0.000140143      12.7042     -143.708 
8.51103e-05      12.1805     -127.529 
2.88646e-05      9.78938     -121.123 
9.80551e-06      9.59723      59.1576 
-0.000140801      13.3379     -131.170 
-1.91110e-05      9.73952     -114.251 
-9.75075e-06      3.25107      107.544 
3.82798e-05      13.5469      41.4092 
-1.92307e-05      10.7290     -122.980 
-1.90751e-05      10.9076      55.2331 
-0.000185323      11.2752     -65.2531 
4.70262e-05      10.1767      36.1280 
-2.85411e-05      9.40845     -110.013 
8.36383e-05      10.8638      50.9799 
-2.84123e-05      8.64472     -104.744 
-9.68163e-06      9.68844      147.822 
9.66028e-06      10.2389      82.0296 
9.66037e-06      2.99990      126.876 
-1.92432e-05      11.2095     -62.2479 
9.66827e-06      6.09229     -119.931 
1.87945e-05      6.39921      164.966 
9.65341e-06      12.5616     -35.8663 
4.73617e-05      11.0022      117.266 
-2.81617e-05      10.0223      88.7430 
3.74454e-05      13.3545      49.0076 
-5.63905e-05      9.88087      84.7756 
-9.62482e-06      9.85916     -115.213 
6.60253e-05      9.39657      29.7301 
-3.65690e-05      6.72463      49.5846 
1.88175e-05      10.2203     -89.7770 
1.90906e-05      13.0953     -135.000 
9.59620e-06      9.48860     -29.9714 
-0.000110789      10.0864     -92.0465 
-2.81580e-05      7.48296      83.8635 
0.000111248      11.3000     -60.7591 
-8.32058e-05      7.10929     -87.0959 
-0.000110008      11.0522      39.5675 
0.000202886      10.4606     -102.815 
-3.74837e-05      9.03518     -41.9501 
0.000121266      12.8104      52.0399 
0.000110998      10.9395      58.2287 
0.000180666      7.80181     -42.1932 
-5.58058e-05      8.94050      103.320 
6.50246e-05      12.5458     -35.9185 
9.56181e-06      9.71641      165.820 
-0.000165776      10.0391      65.0191 
-0.000184531      9.40153     -109.897 
-3.76922e-05      8.95891      160.028 
9.53322e-06      7.63221      31.6101 
-9.52063e-06      12.2196      44.3382 
3.74571e-05      10.1716     -115.506 
-2.81378e-05      13.0071      47.3052 
4.61601e-05      9.63451     -77.8971 
9.50335e-06      10.1826      88.6487 
-4.62935e-05      13.4624     -47.5888 
9.52655e-06      10.2592      63.2344 
6.47431e-05      10.2590      82.0453 
5.58159e-05      10.5076      76.5711 
-0.000111022      10.0908     -99.9302 
6.49010e-05      11.6846     -119.197 
-9.49253e-06      9.34684     -20.4107 
1.88535e-05      7.40421     -102.800 
-9.48249e-06      9.43090      169.738 
-5.54441e-05      8.41731      173.314 
-2.81289e-05      10.0184     -18.1459 
9.21864e-05      12.4176      52.2638 
0.000146617      9.38654      29.6227 
-9.47053e-06      8.68544      109.644 
-5.51967e-05      13.6779      46.1270 
-6.06641e-05      9.89053     -84.1955 
8.27768e-05      10.1584     -82.8755 
4.63734e-05      6.17577      151.358 
-9.45551e-06      8.88152      107.291 
1.88371e-05      13.2438      43.1656 
0.000105808      12.8656     -138.530 
1.87474e-05      11.9464     -57.7215 
4.61163e-05      8.95304     -116.679 
0.000137833      13.5615      41.3547 
-9.26565e-05      9.95293      173.076 
1.86829e-05      4.32602     -78.5341 
-3.72486e-05      11.2190     -62.1563 
6.45607e-05      4.87463      83.1660 
5.52869e-05      6.87576     -101.406 
-3.69777e-05      8.31695     -71.7825 
-0.000101108      13.8040      135.822 
-2.78810e-05      10.3437     -100.809 
-4.60268e-05      9.41096      169.716 
4.19399e-05      9.53936     -11.7324 
-2.77417e-05      9.52997      123.356 
0.000100914      10.2024      88.7652 
-0.000109966      9.59674     -174.980 
-9.37128e-06      4.56669     -167.608 
-1.85454e-05      10.7180     -122.889 
9.36349e-06      11.5148      136.267 
1.85431e-05      9.80609     -121.064 
3.68600e-05      8.77967     -83.3299 
1.86111e-05      9.56563      160.200 
8.25002e-05      14.2696     -135.511 
2.77186e-05      13.2157      43.1594 
-0.000100634      11.1462      65.9647 
2.77946e-05      10.6624      111.801 
-4.59908e-05      12.4705      48.6422 
-9.33260e-06      13.1354      130.554 
-6.41046e-05      12.8449      133.611 
-9.32641e-06      9.01396     -79.3888 
5.50628e-05      10.2680      63.1372 
-2.75115e-05      11.5026     -62.9000 
-4.57998e-05      9.30373     -158.565 
-1.85217e-05      10.1127      145.964 
-1.84995e-05      9.09963      16.6029 
3.66876e-05      12.5363     -49.2696 
-2.76218e-05      12.2090      36.1374 
6.39079e-05      11.5288      136.195 
-5.51031e-05      13.7900      135.765 
-1.83654e-05      11.1897     -138.186 
9.26674e-06      8.47226      78.4273 
8.21050e-05      13.7603     -135.294 
-3.67861e-05      13.2292     -39.4161 
-2.74970e-05      8.01546     -66.3147 
-1.83570e-05      8.93621     -95.1356 
1.82923e-05      11.0551      31.1598 
-1.83143e-05      7.54467     -65.4028 
-9.11947e-05      8.93295      160.105 
7.29769e-05      11.9070     -128.796 
9.23285e-06      7.75978     -90.1496 
-3.65694e-05      11.6238     -132.279 
3.65647e-05      13.3366     -135.424 
-3.65582e-05      9.68947     -108.658 
4.55935e-05      12.3091     -127.540 
-8.19092e-05      9.95060      173.187 
-9.21582e-06      13.1222      130.487 
-2.73883e-05      11.3146     -116.789 
-5.47205e-05      7.31514     -43.1170 
5.47041e-05      11.0112      117.356 
-4.56390e-05      12.0326      143.723 
2.73808e-05      9.75975      165.766 
4.55735e-05      9.65761      71.1512 
-1.83045e-05      7.97006     -139.272 
-9.17180e-06      12.9246      141.534 
9.18173e-06      11.3246     -119.869 
7.28049e-05      10.6700      111.902 
9.17774e-06      8.66688      87.7522 
3.64455e-05      13.0959     -134.877 
-8.19420e-05      10.2339      70.7161 
-1.82726e-05      12.9951      47.4946 
-8.55701e-05      6.71200      49.7114 
-3.64020e-05      8.93043     -110.588 
1.82945e-05      9.04215      76.1771 
9.17143e-06      10.2740     -66.4794 
-9.15230e-06      9.88274      84.6587 
3.64147e-05      12.1928     -127.604 
-9.14702e-06      9.32189     -158.609 
9.13297e-06      7.05219      71.8215 
6.36618e-05      10.4042      106.414 
3.64151e-05      7.78681     -42.2934 
6.36411e-05      11.8974     -126.043 
9.13709e-06      11.2532      147.779 
3.63657e-05      10.2598      95.0309 
-9.16210e-06      10.3401     -100.702 
5.45299e-05      12.5060     -144.963 
1.82092e-05      9.70174      161.488 
-1.82251e-05      13.7464      45.1172 
-8.18749e-05      13.2168     -39.3507 
-9.14677e-06      10.1014      146.060 
-4.54492e-05      11.2285     -62.0649 
-9.13091e-06      7.56315     -16.2773 
3.63415e-05      13.8364      43.3607 
6.36359e-05      12.8802     -138.588 
-9.10467e-06      7.20251      96.2143 
-4.54389e-05      9.81141      84.1486 
-4.54667e-05      13.3245     -131.105 
-1.81907e-05      12.1875      42.5397 
-9.12989e-06      10.2108      113.551 
9.11639e-06      10.1892     -115.459 
4.54440e-05      12.6792     -50.7619 
2.72614e-05      4.38272     -116.565 
-3.64084e-05      10.7477      65.2475 
2.72510e-05      10.4881      75.1972 
3.63540e-05      12.8382      52.0222 
9.08605e-05      12.3865     -47.5510 
8.17693e-05      11.6051      120.100 
-9.10181e-06      7.71468      114.503 
-2.72360e-05      13.1914      130.573 
9.10794e-06      9.54679     -104.558 
1.81886e-05      14.1282     -134.600 
-1.81728e-05      12.1482     -135.068 
-2.72593e-05      10.3593     -100.682 
-3.63541e-05      9.41747     -108.321 
2.72638e-05      12.8258      52.0936 
9.12098e-06      10.7669      123.867 
-3.63134e-05      10.5670      118.119 
-1.81625e-05      9.09239      65.2962 
-2.72301e-05      10.6361     -122.405 
-1.81704e-05      9.11832      16.5678 
3.62909e-05      11.2335      59.5088 
-1.81543e-05      10.4032      64.1262 
2.72458e-05      12.0911      51.1797 
1.81493e-05      8.92735     -171.108 
-2.72501e-05      13.3221     -45.3628 
9.11622e-06      11.0854      144.102 
-1.81600e-05      10.0733      146.091 
9.06031e-06      7.92426     -147.994 
-1.81302e-05      9.87054     -170.672 
2.72114e-05      11.5994     -61.3558 
-1.81277e-05      5.05441     -132.274 
-9.07137e-06      7.96805     -139.074 
-2.72066e-05      9.64423     -110.391 
-2.71998e-05      12.9468     -128.727 
-2.71881e-05      10.2772     -83.9689 
1.81532e-05      12.5061     -35.8254 
-9.06905e-06      7.54370     -16.3204 
1.81281e-05      10.1609      36.1929 
-9.06295e-06      13.6677     -131.858 
9.09455e-06      13.5744      41.4165 
2.71907e-05      9.94789     -164.373 
-9.08683e-06      10.3980      65.2104 
-3.63293e-05      10.0434     -8.24331 
9.06412e-06      9.55191     -104.676 
9.08952e-06      12.3219     -128.673 
1.81426e-05      9.12387      175.850 
9.06050e-06      10.1337     -153.636 
-9.06484e-06      8.91481      51.7439 
2.72538e-05      13.8995      42.6678 
9.07496e-06      9.54610      134.914 
-9.08740e-06      12.8206      131.647 
9.07160e-06      6.41805      165.012 
9.05687e-06      11.5897     -61.4437 
-9.06329e-06      8.94519      103.446 
9.07903e-06      10.5121      76.4677 
-1.81476e-05      5.24678      134.536 
1.81318e-05      9.57716      160.354 
-1.81374e-05      9.18163      96.6313 
-9.07217e-06      10.4120      64.0259 
1.81198e-05      10.3491     -81.6660 
1.81333e-05      9.17168      60.4714 
-1.81478e-05      12.4571      48.7121 
9.06467e-06      12.4593      125.526 
9.04317e-06      11.2361      147.724 
-9.06414e-06      9.13775      16.5316 
-1.81669e-05      7.30091     -43.2217 
-9.07700e-06      10.3898      65.3081 
-1.81637e-05      13.8327      135.820 
9.06327e-06      13.7607     -135.177 
-9.09232e-06      10.0309      65.1201 
9.07786e-06      2.44403     -151.121 
9.07754e-06      12.3129     -128.470 
-7.76546e-05      9.33942     -35.3220 
-9.06790e-06      7.91267      174.777 
-1.72452e-05      8.22268     -178.468 
-9.05645e-06      12.9188     -128.716 
9.09918e-06      12.2089     -127.546 
-9.09146e-06      10.7070     -122.798 
9.07492e-06      10.4561     -102.707 
-9.08764e-06      10.0125      65.0713 
9.09445e-06      13.4269      41.8625 
-9.08962e-06      14.2153     -46.0822 
-0.000233362      10.1506      21.2555 
0.000180355      12.2097     -56.8315 
-2.22026e-05      10.1580      21.3621 
-0.000107958      10.9197      60.2410 
9.28371e-05      8.66542      88.0150 
0.000115300      12.8478     -127.155 
-4.06833e-05      9.59099      22.8195 
4.86932e-05      9.82345     -121.003 
4.79499e-05      11.2148      134.930 
-7.40164e-05      11.1616     -138.197 
-0.000124549      10.1184      123.061 
-2.00558e-05      5.03967     -130.011 
6.56238e-05      12.0204     -40.2067 
-8.14292e-05      13.0035      38.1899 
-1.01058e-05      8.39718      173.298 
8.90606e-05      12.0841      46.8771 
-5.40755e-05      12.9135      44.0583 
-0.000112350      12.2490     -136.060 
-9.75183e-06      8.41969      173.177 
-9.71323e-05      9.51856      84.8166 
-2.70748e-05      9.33108      80.3756 
6.98745e-05      9.36837      151.850 
-6.97722e-05      7.70412     -126.660 
-6.89335e-05      7.96607     -138.869 
-6.06908e-05      5.02933     -129.509 
-3.38327e-05      11.5382      128.101 
-5.91762e-05      12.6105     -139.438 
-5.36890e-05      13.1940     -129.095 
-3.53520e-05      2.38053     -54.5715 
-0.000119780      8.43981      173.193 
0.000101338      9.02322     -118.893 
-9.32738e-06      5.06942     -132.120 
9.33221e-05      10.6081      134.083 
-2.66531e-05      7.49897      84.1822 
-1.78647e-05      10.9763      51.5843 
-2.66560e-05      6.71441      49.9550 
-9.17320e-06      4.20016     -72.2545 
-3.44315e-05      9.77671      117.143 
5.23856e-05      6.48684     -96.9031 
-2.61580e-05      11.0970     -54.9064 
-2.61632e-05      7.04959      132.468 
-7.63143e-05      9.73289      147.845 
-6.81436e-05      9.20106     -16.5462 
5.95813e-05      9.58011      77.7034 
-1.77193e-05      10.3736     -156.597 
-3.42927e-05      5.84081      90.7876 
4.17307e-05      7.30678     -160.328 
-6.75519e-05      11.0437      114.615 
8.97604e-06      13.4318     -48.4991 
2.61323e-05      11.1867      134.927 
7.47623e-05      12.0078     -40.1356 
-1.76458e-05      8.27909     -72.1333 
2.55609e-05      7.24437     -121.449 
-4.98450e-05      12.5683      53.4777 
8.77768e-06      7.22918      100.841 
-4.14579e-05      4.19403     -72.5182 
-0.000124293      10.9298      60.1488 
3.29524e-05      9.27237     -151.390 
1.69736e-05      5.11375      85.7419 
2.50849e-05      11.4235      29.9316 
-2.48564e-05      8.78048     -90.3917 
-8.57910e-06      7.95082     -138.773 
2.48946e-05      11.9256     -48.1269 
3.30826e-05      7.04548      71.4628 
8.51985e-06      11.1758     -119.364 
-1.66912e-05      12.3737     -130.280 
2.48771e-05      11.1417     -140.682 
-5.82069e-05      9.53580      123.187 
1.65439e-05      12.1036     -123.612 
-3.27656e-05      8.24838     -72.3546 
2.46648e-05      4.24505      46.9053 
2.47786e-05      12.8521     -138.598 
8.45283e-06      7.23421     -121.317 
3.26341e-05      6.27225      103.463 
8.40034e-06      9.04390     -27.5261 
8.39352e-06      10.2185      150.576 
8.38108e-06      7.34724     -102.259 
2.48443e-05      13.4038     -48.5087 
-1.65359e-05      13.2063     -129.161 
-8.36907e-06      7.03643      132.351 
1.63945e-05      10.4506     -39.8762 
-4.09708e-05      7.51782     -65.4789 
-8.34220e-06      5.28896      163.074 
-2.44042e-05      12.0950     -136.408 
-1.64848e-05      11.3255      25.5226 
-8.33586e-06      6.66406     -53.5443 
-1.62534e-05      7.50098      84.0339 
-1.63274e-05      10.0915     -60.6921 
-4.06947e-05      11.8945     -137.861 
8.26244e-06      10.7838      123.807 
-8.24235e-06      6.06280     -178.298 
-1.63219e-05      10.0430      88.6300 
-1.62703e-05      8.01837     -165.408 
-8.23807e-06      2.39233     -54.1761 
8.23143e-06      10.5639      65.8619 
4.95878e-05      9.79987     -31.2241 
-8.21302e-06      5.27626      162.802 
8.21574e-06      8.32417      20.8317 
-8.21195e-06      5.05586     -131.950 
-1.62740e-05      9.93343      30.4917 
8.19032e-06      7.37556     -102.528 
-3.24203e-05      8.60526     -141.134 
8.16494e-06      7.73249     -146.390 
-1.63998e-05      12.3678      143.482 
4.05360e-05      11.2342      63.1149 
8.12477e-06      6.46995     -97.1019 
1.63536e-05      11.1659     -119.273 
8.10030e-06      10.7625      45.3757 
-8.06229e-06      12.6646      43.0168 
8.05985e-06      7.20563      100.719 
8.06029e-06      11.1730     -135.582 
-8.04929e-06      12.1158     -128.363 
8.01148e-06      10.3457      139.784 
-8.00849e-06      12.0502     -125.749 
6.81527e-05      8.66611      87.8861 
-2.57939e-05      5.04224     -129.687 
3.34798e-05      10.0842      143.631 
-1.68756e-05      9.31185      80.3555 
-4.14964e-05      12.9124      141.602 
2.46317e-05      14.0154     -45.5184 
-4.12149e-05      11.1752     -138.119 
1.65836e-05      11.2010      135.000 
-2.44636e-05      5.25691      162.737 
3.25837e-05      6.48931     -97.0806 
4.09130e-05      10.2527      120.215 
3.31983e-05      10.9378     -46.8542 
4.11076e-05      11.2551     -41.1101 
-2.46488e-05      5.93765      4.44313 
-1.62702e-05      10.1077      122.968 
-2.44021e-05      11.6387      35.6279 
1.63379e-05      4.34993     -78.3256 
-3.24042e-05      11.6350     -141.142 
-3.27015e-05      11.0356      114.523 
-1.64929e-05      2.35289     -54.6981 
-1.61925e-05      12.2048      138.919 
1.61983e-05      10.2008      150.520 
1.61842e-05      10.3715     -133.203 
-1.61852e-05      12.3888      143.666 
1.60807e-05      10.5477     -113.941 
8.04761e-06      7.64245      31.7347 
-8.05448e-06      9.10989     -166.544 
1.60948e-05      11.1266     -140.618 
1.59486e-05      13.3969      46.3912 
1.65487e-05      9.38558      151.906 
-8.24828e-06      12.8427      135.883 
-8.14007e-06      9.18704     -32.8269 
-8.08997e-06      7.73768      125.746 
8.07867e-06      11.5008      136.340 
8.04399e-06      6.79025     -131.061 
-8.01744e-06      9.52281     -16.7200 
-7.99337e-06      9.53874      84.8276 
-7.97128e-06      9.05026     -41.8643 
7.97795e-06      7.05195      71.3067 
-7.94865e-06      8.47489     -104.627 
7.92659e-06      9.65509     -73.1438 
! Tentative model.
! Flux (Jy) Radius (mas)  Theta (deg)  Major FWHM (mas)  Axial ratio   Phi (deg) T \
! Freq (Hz)     SpecIndex
-8.36768e-06      11.0522      39.5666 
