! Center RA: 12 21 31.69052,  Dec: +28 13 58.50011 (2000.0)
! Established model.
! Flux (Jy) Radius (mas)  Theta (deg)  Major FWHM (mas)  Axial ratio   Phi (deg) T \
! Freq (Hz)     SpecIndex
 0.0731242    0.0446338     -63.0042 
 0.0166226    0.0600310     -90.0000 
0.00122069    0.0633577      18.6495 
0.00423474    0.0720098      33.5245 
0.000801117    0.0397705      0.00000 
0.00129755    0.0446338      26.9958 
0.000509103    0.0286526     -45.0000 
0.00170811    0.0562440      45.0000 
0.00440936     0.201375      95.7743 
0.00539588    0.0720098      56.4755 
0.00541325     0.220795      95.2649 
0.00902854    0.0828082      75.8378 
0.00625296    0.0802914     -90.0000 
0.00194091     0.240124      90.0000 
0.000370963    0.0633577      71.3505 
0.000223845     0.240977      94.8229 
0.00227495     0.260423      85.5380 
0.00159752     0.259634      90.0000 
0.000334058     0.280627      85.8598 
0.00176020    0.0998015      90.0000 
0.000815992     0.279894      90.0000 
0.000470326     0.300155      90.0000 
0.000668217     0.184432      102.453 
0.000354767     0.319665      90.0000 
8.58817e-05     0.340529      93.4109 
0.00117167     0.360755      93.2195 
0.000833021     0.204262      101.227 
0.000978208     0.380236      93.0544 
0.00281139    0.0998015     -90.0000 
0.000514728     0.223431      100.253 
6.00969e-05     0.381773      95.9795 
0.00105402     0.401929      95.6787 
0.000159458     0.209153      106.680 
0.000619745     0.227911      105.272 
0.000182516     0.422095      95.4065 
0.000423040     0.420705      92.7603 
0.000578784     0.710331      99.7310 
0.000350784     0.730308      99.4623 
0.000509703     0.440193      92.6380 
0.000213631     0.234065      110.062 
0.000210749     0.714035      101.334 
0.000159009     0.260423      94.4620 
0.00101775     0.523472      96.5851 
0.000682493     0.280627      94.1402 
0.000156592     0.776764      101.874 
0.000202439     0.795867      101.585 
0.000191724     0.819935      102.688 
7.45110e-05     0.882975      103.115 
7.23712e-05     0.902718      102.823 
3.54965e-05     0.921752      102.554 
0.000414240     0.756949      102.190 
0.000170681     0.941538      102.286 
0.000294065     0.101837     -78.5245 
0.000128407     0.961344      102.029 
0.000182700     0.501338      94.5500 
0.000122941     0.980435      101.792 
6.04502e-05     0.781185      103.329 
0.000604965     0.121759     -80.4216 
2.97005e-05      1.00437      102.645 
2.94469e-05     0.907248      104.025 
0.000421511     0.500168      92.3215 
8.66862e-05      1.02414      102.397 
2.84248e-05     0.887605      104.342 
5.61035e-05      1.04767      103.250 
2.77722e-05     0.761484      103.680 
0.000226642     0.912370      105.259 
0.000107991      1.07195      104.017 
0.000262806     0.737890      102.510 
0.000152959      1.09662      104.787 
0.000115714     0.892839      105.601 
0.000598202     0.480248      90.0000 
4.87184e-05      1.10196      105.806 
0.000510034      1.76251      99.1375 
0.000486887      1.12613      106.491 
0.00109095      1.75941      98.4861 
0.000801074      1.42619      104.628 
0.000340377     0.718124      102.860 
0.000333248    0.0828082      14.1622 
0.000492492     0.126477     -71.6725 
0.000696548      2.55229      113.550 
8.22010e-05     0.917698      106.434 
0.000173893     0.698386      103.230 
0.000130452     0.898283      106.800 
3.83966e-05      2.57898      113.783 
0.000144548      2.82674      112.030 
0.000150685     0.262662      98.7088 
3.63490e-05     0.679409      103.606 
0.000117082     0.659734      104.020 
0.000203940      1.15139      107.171 
0.000159528     0.282706      98.0871 
3.50491e-05      2.80797      112.185 
0.000116296     0.923634      107.640 
0.000392539      2.54455      113.148 
0.000144411      2.83412      112.396 
0.000156221    0.0998015      0.00000 
0.000471948      1.78178      99.0379 
0.000429355     0.461703      85.0585 
0.000130817      2.86540      109.569 
0.000103915     0.904347      108.029 
0.000278356      1.15753      108.130 
3.05036e-05     0.145849     -74.1761 
0.000425987      1.43125      105.384 
0.000100420      2.84190      112.773 
9.82543e-05     0.929974      108.830 
0.000518883     0.152624     -66.8384 
4.19295e-05     0.640096      104.460 
0.000161894     0.266484      103.019 
2.85324e-05      2.51104      108.576 
0.000543833     0.120062      0.00000 
1.39837e-05      2.50466      108.136 
0.000143255      2.47937      107.854 
2.72429e-05      1.10096      114.696 
0.000103990      2.84980      113.149 
5.18636e-05      1.13565      116.108 
6.04197e-05      2.85893      109.201 
0.000100008      2.25592      114.067 
2.56613e-05      3.12651      106.352 
1.28765e-05      3.20705      107.413 
4.94627e-05      3.23248      107.648 
0.000171607     0.805984      113.367 
0.000719793      1.99645      100.964 
0.000141048      1.17200      117.451 
7.15470e-05      3.12086      105.995 
0.000105464      2.85753      113.509 
7.84754e-05     0.271765      107.184 
2.36771e-05     0.733911      101.023 
0.000122634      2.47323      107.407 
1.19004e-05     0.621223      104.909 
0.000192702      2.22987      113.796 
4.54158e-05      3.25724      107.884 
5.46181e-05      1.18292      108.722 
0.000241712     0.969949      98.3182 
4.45117e-05      3.11534      105.636 
3.25496e-05     0.954085      123.028 
0.000239672      2.86567      113.880 
3.13574e-05     0.626742      106.699 
0.000288424      1.20859      118.681 
4.16446e-05     0.965278      124.036 
4.20397e-05      3.30811      108.324 
0.000191945     0.443806      82.2261 
4.06997e-05      2.85233      108.816 
6.21535e-05      3.09060      105.389 
1.05984e-05     0.282706      81.9129 
5.52301e-05     0.101837      11.4755 
0.000106430     0.727252      97.8876 
1.03451e-05     0.278155      111.026 
0.000122878      2.44221      106.659 
2.98320e-05     0.286260      77.8948 
0.000152637      1.54229      99.6915 
9.39191e-05     0.260038      112.569 
1.01025e-05      3.36503      109.081 
1.98643e-05      3.22140      110.351 
3.88824e-05      3.39012      109.297 
5.76748e-05      3.08529      105.027 
6.64557e-05      2.58721      114.194 
0.000194127      1.00456      125.269 
0.000433645     0.722868      131.634 
7.97944e-05      3.22823      110.676 
0.000171331      2.20348      113.544 
9.54283e-06     0.632861      108.456 
2.76045e-05     0.291183      73.9938 
3.67417e-05      3.41571      109.494 
0.000228799      2.35739      104.753 
0.000236486      3.92129      114.078 
0.000131761      2.84586      108.430 
1.99389e-05      3.09970      104.568 
0.000183745      3.08010      104.663 
8.79516e-05      1.20797      109.335 
0.000162031      2.56045      113.966 
6.82501e-05      3.42252      109.814 
1.75698e-05      3.09485      104.218 
0.000102972     0.724832      96.3598 
4.11293e-05     0.286050      65.1829 
2.57232e-05      3.08994      103.854 
3.03012e-05     0.607364      107.248 
0.000132407     0.268467      116.565 
0.000125316      2.87393      114.250 
1.67084e-05      3.08532      103.502 
1.63990e-05      1.01639      126.202 
0.000316539      2.82664      108.560 
2.43532e-05      3.09588      102.685 
4.77678e-05      1.24556      132.387 
0.000124584      3.44847      110.016 
0.000101622      3.23544      111.012 
4.65062e-05      3.09165      102.333 
0.000232876      1.56153      99.5710 
0.000310407      1.24505      119.856 
3.66596e-05      2.46746      106.975 
1.53363e-05      2.24525      109.240 
2.26474e-05      1.25931      133.068 
0.000106325     0.990000      98.1485 
0.000257557     0.304558      66.7829 
7.13202e-05      2.17684      113.269 
0.000144798     0.427819      79.1828 
7.04151e-05      3.08739      101.965 
2.18374e-05      2.83682      118.192 
0.000149319      1.28794      133.111 
0.000221775      3.06122      104.755 
7.24166e-06      2.36967      111.805 
5.84350e-05      2.37699      112.241 
7.04711e-06      2.59527      114.587 
0.000146674     0.184676     -40.5508 
0.000181179      2.84609      118.538 
0.000306303      3.91337      113.817 
8.75882e-05     0.722868      94.7636 
0.000426513     0.250509      118.638 
0.000209512      2.56875      114.379 
1.32938e-05      1.45079      105.172 
9.27915e-05      2.15893      113.473 
4.38754e-05      2.49257      107.268 
5.05606e-05      3.55427      108.029 
0.000102688      3.08325      101.597 
9.16434e-05      3.46681      109.906 
0.000267302      2.32846      103.911 
0.000108448      2.89173      114.091 
5.19179e-05      3.21654      111.141 
2.75866e-05     0.613676      109.055 
0.000145902      3.56059      108.339 
6.81909e-05      2.38473      112.692 
4.70219e-05     0.107434      21.7271 
0.000149944      2.51121      107.135 
0.000106263      2.02026      101.418 
5.72891e-06     0.824622      112.808 
6.74617e-05     0.987333      96.9846 
1.66098e-05      2.13230      113.191 
0.000166572      1.30136      133.738 
0.000368229      2.14036      113.689 
4.13677e-05     0.992999      124.315 
0.000130276     0.721469      93.1600 
7.07617e-05      3.07939      101.241 
0.000339233     0.199903     -36.9129 
7.38675e-05     0.584228      128.062 
0.000135956      1.20142      108.424 
0.000171479      2.02437      101.981 
7.33811e-05      3.22390      111.477 
9.99112e-06     0.912809      118.798 
0.000101667      2.00040      101.533 
9.15758e-05      3.47350      110.208 
3.62091e-05     0.750414      131.757 
1.75921e-05      1.03798      115.064 
3.92033e-05     0.985074      95.8148 
2.64847e-05     0.982133      123.374 
7.13977e-05      3.07550      100.871 
6.55033e-05     0.100252      36.7841 
1.67147e-05     0.594563      109.693 
5.66824e-05      2.39262      113.140 
9.00382e-06      1.44581      104.426 
0.000154268      2.89975      114.443 
4.31036e-06      3.96306      115.396 
0.000192940      2.87292      118.707 
0.000176401      3.56678      108.637 
9.04953e-05     0.764056      132.891 
1.87299e-05      2.73222      109.226 
8.23188e-06      3.94476      115.522 
7.52533e-05     0.971135      122.376 
0.000157269     0.568413      129.321 
3.07523e-05     0.983289      94.6838 
4.56861e-05      3.95354      115.787 
7.55167e-06      1.01966      115.547 
3.66950e-05     0.141777     -98.2159 
4.54293e-05      3.90523      113.546 
2.54142e-05      3.07175      100.500 
2.19193e-05      1.32946      133.788 
7.28666e-05     0.601418      111.443 
5.41033e-06     0.431906      76.6398 
0.000147743     0.981842      93.5053 
0.000102694     0.412220      75.9891 
1.38112e-05      2.37400      113.332 
2.94463e-05      3.20505      111.610 
9.13072e-05      1.34356      134.412 
1.67856e-05      3.05631      104.401 
6.74390e-06      1.04672      116.069 
2.32698e-05      3.04139      99.4577 
0.000118906      1.25526      120.658 
5.93592e-05      1.58496      100.171 
8.42405e-05      2.40035      113.568 
2.15258e-05      1.02856      116.565 
0.000133968      3.01206      98.3945 
5.25727e-05      3.89719      113.272 
7.35685e-05      2.50553      106.709 
3.72737e-05      3.45520      110.320 
4.29060e-05      3.96239      116.051 
9.42960e-05     0.116465      31.0271 
3.60739e-05      2.71380      109.362 
3.07224e-05      3.18692      111.739 
6.00590e-05     0.987667      121.770 
2.75454e-05      2.57686      114.774 
8.80865e-05      1.34711      139.201 
8.57541e-05      2.32384      103.444 
2.88555e-05     0.740950      93.0768 
4.77558e-05     0.777987      133.984 
1.18930e-05      1.37169      134.402 
4.57641e-05      3.88952      113.008 
7.29341e-05      3.57330      108.945 
1.62305e-05      3.11491      102.607 
4.61926e-05      3.97100      116.304 
2.91332e-05      1.40034      134.414 
2.73972e-05      1.58151      99.4489 
3.82311e-05      1.41049      108.165 
2.30493e-05      3.46229      110.635 
2.49616e-05      2.55099      114.560 
2.63724e-05      3.16811      111.874 
2.26074e-05     0.156126     -129.735 
1.11242e-05      3.86297      112.849 
2.62486e-05      2.18237      116.089 
2.42807e-05      2.40853      114.010 
2.78341e-05     0.998483      122.759 
2.58263e-05      1.41459      135.000 
1.51761e-05     0.791661      135.000 
2.65617e-05     0.260826      122.547 
4.99718e-06      1.75664      97.8567 
-6.12584e-05     0.100252      143.216 
4.87916e-06      2.92045      103.461 
8.00461e-06      3.45029      111.056 
3.22202e-06      1.44089      103.645 
-4.74384e-06      3.72442      114.091 
1.58322e-06      3.98002      116.565 
1.57328e-06      2.00455      102.101 
-0.000401552      12.0786     -137.888 
0.000581580      8.60595      78.7420 
-0.000454215      10.0986      141.835 
-6.09367e-05      7.95504      124.450 
-0.000190730      5.39317     -26.6613 
-0.000385696      2.31449     -170.049 
-0.000113909      10.1200     -179.545 
-0.000187606      7.94360      124.330 
-0.000258555      9.57381     -38.8085 
0.000140112      8.88524      167.653 
5.73172e-05      8.36351     -1.64524 
2.90050e-05      7.37211     -80.9461 
0.000229310      5.83080     -157.832 
0.000251399      8.70309     -116.329 
0.000254513      2.63764      40.6968 
0.000201648      7.36894     -81.1017 
0.000248512      8.86126     -88.9665 
-8.13472e-05      8.86399      12.9092 
0.000242702      7.10758     -125.031 
-8.04032e-05      10.4249     -118.284 
-0.000147459      9.25401      23.2950 
0.000193447      3.96053     -95.7959 
-0.000290256      12.1880     -38.3375 
-7.83951e-05      11.2160      123.805 
0.000101951      10.9353     -119.473 
0.000167739      10.7509     -133.643 
0.000147253      9.64692     -55.8167 
5.16116e-05      8.38376     -1.64126 
-0.000211342      10.1199     -179.660 
0.000119840      9.98384     -135.000 
0.000213448      8.88093      167.780 
-0.000213826      12.0772     -137.752 
0.000121481      9.74975     -105.833 
-6.96148e-05      8.33630      10.3662 
-7.21508e-05      8.89672     -83.5445 
-0.000119477      7.51085     -74.5586 
-4.92210e-05      7.87948      133.665 
-0.000118201      8.84424      12.9385 
-5.04211e-05      10.3189      137.434 
-0.000117432      10.4071     -118.337 
-0.000118152      9.14376     -122.404 
-0.000184421      6.62909     -123.929 
6.92806e-05      8.19292      19.9818 
-0.000137373      9.08572     -100.271 
-7.13341e-05      10.2903      137.441 
-0.000137230      9.36048      18.8242 
-4.74343e-05      11.1885      123.774 
-9.14480e-05      11.7641      127.124 
-0.000158033      12.1492     -134.267 
-6.79575e-05      9.52156      6.51173 
4.57853e-05      8.13908     -5.64016 
4.50730e-05      3.67712     -20.6984 
-2.34400e-05      6.70128     -88.9734 
6.65934e-05      7.49850      21.4298 
-8.90541e-05      10.3052      137.517 
-4.51924e-05      7.61655     -13.0505 
-4.53519e-05      9.64531     -135.000 
4.48701e-05      6.99140     -125.097 
2.30832e-05      7.18478      37.7663 
-6.68717e-05      10.1438     -98.9627 
-4.52566e-05      3.19633     -136.018 
6.66111e-05      8.60690      92.2635 
-4.48982e-05      4.49083     -62.4073 
-4.49306e-05      6.43295     -72.6324 
4.47026e-05      10.5368      57.6387 
-4.42849e-05      9.24893      51.3206 
4.42698e-05      5.57464     -81.9604 
-6.61673e-05      5.32118     -178.925 
-2.26890e-05      8.21961      172.029 
-2.25946e-05      1.87487     -78.9239 
-6.65506e-05      9.39100      123.624 
-6.58464e-05      9.71437     -122.643 
2.24983e-05      10.9273     -119.614 
-2.24742e-05      2.38965     -51.1182 
-6.55864e-05      12.3006     -51.0045 
-6.57380e-05      4.79388     -63.7558 
-2.24004e-05      11.0550     -50.5803 
-4.39126e-05      9.23799     -84.7849 
2.22288e-05      7.93437      41.5264 
-2.21548e-05      7.01546     -31.8319 
-2.19281e-05      6.68069     -89.1440 
2.18575e-05      8.52159     -5.65487 
-2.18575e-05      10.3293      41.4659 
4.30501e-05      9.52423      56.4752 
-2.17566e-05      8.71549      96.4562 
-4.28644e-05      12.2119      129.817 
-4.28999e-05      8.67098     -39.1980 
-2.16435e-05      9.75928     -44.0031 
-2.14708e-05      11.4339      133.016 
2.12566e-05      9.88336     -26.3063 
2.12226e-05      9.76374     -105.687 
-2.11433e-05      9.15143      168.272 
-0.000213973      1.81377      165.970 
-5.14981e-05      1.83343      166.123 
-0.000166613      8.55999     -36.7353 
0.000288701      3.95170     -4.35615 
-0.000267595      10.1164     -125.262 
5.55843e-05      12.6978     -41.2984 
-0.000276759      12.4048     -124.688 
-0.000152756      13.9607      135.987 
4.13586e-05      4.47591      118.860 
5.92298e-05      7.65157      48.6021 
7.65149e-05      6.11006     -17.7251 
5.85123e-05      9.78325      137.733 
0.000191135      12.7259     -41.3042 
-2.02692e-05      1.80914      166.569 
2.00944e-05      9.45163      133.285 
-0.000232323      12.7283      131.178 
8.81648e-05      4.50307      118.953 
0.000112389      9.46502      133.371 
-0.000137688      9.10254      124.073 
-8.39057e-05      11.9829      130.736 
-5.40709e-05      1.81209      169.188 
3.54214e-05      8.54324      168.114 
8.44842e-05      11.0601     -140.062 
-6.09893e-05      9.97397      131.584 
-6.88641e-05      12.7692      131.255 
6.63359e-05      12.7476      136.717 
0.000139665      3.95040      105.863 
0.000142737      10.1438     -130.443 
-4.81200e-05      12.7558      131.186 
-6.42487e-05      4.29770      159.284 
3.22628e-05      9.04190      34.1833 
6.69174e-05      11.4045     -36.2275 
-0.000108624      12.3753     -141.759 
-0.000149592      5.62237      51.5026 
6.53321e-05      7.66335      48.2826 
1.75455e-05      6.86332     -132.993 
-4.80785e-05      11.9961      130.810 
-1.72255e-05      3.76294     -136.293 
3.33987e-05      9.82637      137.807 
1.68187e-05      2.04965      28.5636 
6.15997e-05      6.08460     -17.6015 
-0.000208635      9.31598     -176.675 
-6.14644e-05      8.51600     -36.7861 
-7.49335e-05      9.55712     -121.829 
4.66365e-05      8.89242      8.27711 
-7.49975e-05      10.3450     -61.6002 
-1.65169e-05      6.07606     -94.1501 
5.58634e-05      9.57044      75.8494 
-9.68716e-05      3.76240     -135.857 
5.81141e-05      11.2101      115.239 
-7.20651e-05      9.94537      131.574 
-1.61584e-05      1.79485      165.819 
9.91523e-05      6.44942     -133.996 
-1.60742e-05      13.9747      136.042 
8.24698e-05      7.32932     -9.89822 
-7.24709e-05      12.0094      133.853 
3.09995e-05      8.80650     -144.614 
-3.07574e-05      3.62812      36.9291 
3.05811e-05      11.0017     -119.875 
3.06466e-05      9.18580      1.99429 
1.55147e-05      9.90521      76.2164 
-2.87510e-05      6.22256     -91.6585 
5.51701e-05      12.5752      137.965 
-0.000273772      14.0028      136.042 
5.66038e-05      11.3925     -36.1453 
-8.71209e-05      3.65906      25.5876 
2.81845e-05      8.80142      6.78632 
1.46456e-05      6.49804     -155.646 
-2.74299e-05      10.0738      6.95668 
-7.76917e-05      6.07468     -93.9666 
2.82117e-05      9.92009      76.3579 
-1.44602e-05      11.4217     -49.6151 
5.35088e-05      9.16555      1.99870 
8.16069e-05      8.81176     -144.794 
1.42951e-05      11.4208     -36.1674 
1.42936e-05      8.56726      168.009 
2.78801e-05      8.31258     -157.507 
8.68929e-05      7.30937     -9.92552 
-1.42908e-05      4.00761      129.332 
-1.42201e-05      8.55571     -39.3089 
-6.52119e-05      11.1244      49.6674 
1.41630e-05      10.1611     -25.9103 
8.48262e-05      8.16562     -23.9882 
-6.40712e-05      3.63210      36.4982 
-0.000134532      8.56201     -178.659 
2.63041e-05      9.33227      52.6620 
1.39269e-05      5.63120      46.7279 
-0.000173433      10.2961     -147.050 
4.97463e-05      6.48027     -155.575 
6.19343e-05      9.31621     -126.794 
-0.000219858      12.2878     -51.0779 
-3.91594e-05      10.4884      28.4701 
-1.38070e-05      1.83199      169.307 
-1.37295e-05      10.1963     -86.7388 
1.36757e-05      10.5687     -71.8043 
-3.79204e-05      9.56742     -121.929 
0.000292575      10.8878     -70.1326 
1.36693e-05      9.85443      137.796 
3.51891e-05      10.9916     -119.784 
2.54559e-05      11.0571     -139.917 
1.34623e-05      6.38358      178.026 
-6.15977e-05      12.0115      130.746 
-2.58068e-05      5.92551      8.54261 
2.63083e-05      11.3769     -123.745 
4.97119e-05      10.1436     -25.9585 
1.33384e-05      6.84952     -132.869 
-1.32833e-05      5.94602      72.7862 
6.17033e-05      9.03676      55.6449 
-2.55592e-05      11.9521     -133.983 
2.45289e-05      4.49366      118.735 
2.44292e-05      9.08909     -69.2518 
-2.52721e-05      3.43234      22.9831 
-2.92947e-05      5.65982     -59.1743 
8.74939e-05      7.14288     -101.465 
3.76818e-05      9.98137      57.5202 
-2.50243e-05      11.0368     -37.6389 
-7.96473e-05      8.47187     -36.8445 
2.50186e-05      6.04057     -17.5324 
0.000119954      12.0097      139.998 
-1.28376e-05      4.27946      159.191 
-1.27840e-05      8.56856     -39.4137 
-0.000143403      10.1951     -86.8525 
-1.27373e-05      1.79017      166.424 
1.27255e-05      9.92976      76.6075 
-4.73128e-05      12.3600     -141.703 
1.27224e-05      6.38294      178.201 
-2.35751e-05      3.99480      129.107 
-6.95002e-05      5.69700     -58.9314 
1.26729e-05      13.0920      47.2902 
-0.000132840      11.9808      133.850 
2.44079e-05      8.34164     -157.740 
-1.25616e-05      9.06962     -34.2134 
-1.25025e-05      6.02244      50.3891 
2.44808e-05      11.3881     -123.829 
0.000247722      13.0771      47.2300 
1.23192e-05      9.98974      77.1622 
-1.22746e-05      9.65592     -102.682 
6.75173e-05      12.5601      137.903 
1.22068e-05      1.93977      137.932 
7.43115e-05      11.4089     -36.0853 
4.69203e-05      4.12624      93.0544 
1.21800e-05      9.29126      55.9660 
-7.54290e-05      5.93343      72.5435 
-7.27902e-05      11.7249     -44.3777 
-4.03795e-05      9.90383      131.480 
-1.20994e-05      6.52308     -55.8730 
-0.000120919      5.17650     -156.307 
-7.16307e-05      4.30464      159.041 
1.20336e-05      8.80384      6.91725 
-5.51830e-05      6.02568      50.6549 
2.31228e-05      6.85065     -132.630 
0.000100737      7.54942     -80.2371 
1.18622e-05      4.30431      36.5003 
1.18100e-05      7.04387      48.8009 
5.52831e-05      10.0052      77.2969 
5.14358e-05      6.36344      178.196 
5.25420e-05      11.7362     -40.2282 
-4.46552e-05      6.55122     -55.8258 
0.000102106      9.99226      57.4222 
-7.25189e-05      9.02576     -34.2529 
-4.21916e-05      4.06989      76.6427 
-2.10488e-05      8.54004     -39.3950 
5.45612e-05      11.3826     -123.971 
3.26242e-05      5.62628     -32.2233 
1.15126e-05      9.14603      2.12997 
2.20129e-05      1.92478      137.528 
-2.23603e-05      9.91832      35.6465 
-4.35657e-05      3.63645      36.0517 
-0.000124065      11.8499      122.807 
-2.08448e-05      10.0915      6.82856 
-1.13977e-05      11.2739      49.2457 
6.02591e-05      10.5228      146.554 
-3.03528e-05      3.45100      22.8518 
1.12419e-05      6.02126     -17.5904 
3.09789e-05      1.88475     -109.200 
1.11699e-05      11.3603      115.888 
-3.11062e-05      9.66039     -102.799 
-4.79961e-05      5.62556      51.7818 
-3.83920e-05      9.57434     -121.765 
3.03099e-05      9.05287      55.7145 
3.10188e-05      11.8204     -52.8406 
-1.10561e-05      10.4803      28.6203 
7.04256e-05      4.14572      93.0400 
6.83360e-05      9.12654      2.13452 
-7.52684e-05      10.3081     -11.5267 
3.04840e-05      7.70791     -10.4665 
5.73468e-05      9.04190      55.8167 
-1.08231e-05      5.09362      59.3055 
7.33044e-05      11.0726     -139.984 
5.70446e-05      8.92151     -31.3357 
-7.41236e-05      11.4524      122.303 
3.02882e-05      10.2998     -159.067 
0.000116054      11.7511     -40.1667 
1.06504e-05      9.99708     -54.1159 
0.000102397      11.4081      36.5888 
-2.96647e-05      11.1113      49.7471 
-7.66668e-05      12.0400      130.757 
-5.00666e-05      10.6882      35.3258 
1.06388e-05      10.1254     -26.0087 
-1.05888e-05      10.8735     -40.0759 
-2.06167e-05      9.57516     -171.110 
1.05299e-05      10.2185      150.576 
-3.91368e-05      10.1591      11.9316 
-2.02177e-05      11.9039      54.5757 
-3.84029e-05      8.24361     -126.815 
3.04405e-05      12.2547      43.0150 
4.56651e-05      6.83745     -132.509 
1.03962e-05      5.99678     -17.4691 
-0.000103117      11.9668      133.780 
-2.00850e-05      10.4632      28.6715 
1.03347e-05      9.28548      56.2432 
1.03060e-05      10.0166      164.243 
1.02871e-05      9.06368     -69.3279 
-3.39367e-05      12.3567     -141.571 
-2.94916e-05      6.56263     -55.6794 
1.02014e-05      7.59929     -146.266 
-1.01916e-05      9.93480      35.5784 
-4.32012e-05      11.8169      53.6722 
2.97439e-05      10.0198      77.4344 
-7.22534e-05      11.4191      133.085 
-1.91971e-05      12.2593     -55.9734 
-0.000112964      13.6320      132.443 
3.68685e-05      10.2640     -15.7158 
1.91800e-05      10.1047      13.6245 
8.97408e-05      12.5457      137.844 
2.84838e-05      10.1525     -26.0613 
-3.64389e-05      10.8580     -40.1447 
6.41790e-05      11.3888     -124.192 
-9.93545e-06      6.69826     -172.449 
-4.54009e-05      3.64101      35.6063 
-3.68661e-05      5.68657     -59.1063 
-2.79481e-05      3.76155     -135.428 
-2.76759e-05      7.59612      93.7723 
-0.000262555      12.3163     -51.0638 
-4.61063e-05      12.7482     -37.1559 
9.75134e-06      7.33283     -10.0542 
9.74213e-06      6.49002     -155.803 
3.47298e-05      10.9747     -119.834 
9.73145e-06      10.2454      150.530 
9.71494e-06      8.55134     -27.2846 
-2.77273e-05      12.4104     -124.561 
-2.76230e-05      9.59444     -171.128 
2.53149e-05      6.44952     -134.246 
-5.26762e-05      10.6026      124.860 
-9.02459e-05      7.13078     -75.3774 
2.62569e-05      9.30454     -126.698 
0.000183169      12.2399      43.0797 
-1.85459e-05      13.5555     -136.913 
3.47996e-05      11.5488      150.993 
5.73838e-05      3.90979     -4.10520 
-6.66679e-05      12.4500     -129.983 
-0.000185701      9.85691     -86.6264 
-9.40629e-06      14.1426      134.542 
4.08281e-05      5.52134      108.371 
9.36392e-06      10.0407      164.166 
-0.000199279      11.6686     -127.480 
6.80878e-05      10.0242      77.3214 
2.68098e-05      5.60979     -32.3295 
5.96363e-05      10.2654     -75.0983 
-9.31430e-06      10.3272     -11.5051 
2.51842e-05      12.5476      49.9123 
2.65329e-05      6.29853      119.907 
-6.29898e-05      10.2654      171.034 
-8.72287e-05      10.6717      35.3887 
6.51422e-05      10.2271      113.759 
-3.39332e-05      11.8798      44.7262 
1.80137e-05      6.73770     -128.130 
-9.18210e-06      9.91327      35.8064 
2.67511e-05      7.56647     -156.145 
-3.97156e-05      8.42790     -36.8964 
9.14562e-06      8.79060     -144.541 
2.61632e-05      10.7411      150.190 
-9.13340e-06      10.1323     -125.198 
2.49308e-05      10.3070     -158.962 
-1.70130e-05      6.73507     -172.664 
-2.64049e-05      10.8360      25.0051 
-9.04498e-06      14.4674     -135.055 
1.75695e-05      10.2631      150.586 
-3.39790e-05      4.07444      76.3758 
1.73773e-05      7.31288     -10.0819 
4.06671e-05      8.00059      105.220 
-5.61844e-05      11.9198      54.6300 
5.74944e-05      10.8785      64.5185 
8.97723e-06      8.59597     -27.2831 
-0.000124161      10.2718      80.8109 
-2.53829e-05      9.04190     -34.1833 
-1.75359e-05      8.54298     -178.525 
-5.74500e-05      11.7073      47.5613 
1.65871e-05      10.1461     -130.281 
1.72489e-05      10.6805     -27.4310 
8.84604e-05      10.1189      13.4870 
3.29378e-05      4.16707      93.3035 
1.66047e-05      10.2561     -164.854 
8.75988e-06      12.7107     -41.3644 
1.67333e-05      10.0528     -151.087 
-2.49670e-05      10.4706      138.483 
2.54803e-05      6.72521     -127.994 
8.69219e-06      5.64139     -75.4240 
-5.20820e-05      8.44586      133.369 
2.43506e-05      10.1700     -26.0130 
-7.15037e-05      12.2208      136.060 
-2.43792e-05      14.1563      134.598 
-4.89186e-05      11.7208      33.4469 
4.09322e-05      11.2388      35.5875 
4.87011e-05      7.90537     -81.5615 
0.000142495      12.5249     -143.898 
-5.30296e-05      9.98969      129.394 
-0.000149940      11.8109      122.695 
-1.67579e-05      12.0662     -51.3268 
3.17589e-05      8.79521     -144.718 
-0.000146551      12.0676      130.766 
6.94989e-05      11.4002     -124.276 
-2.50177e-05      9.54574      31.0271 
-4.90107e-05      12.2616      44.5388 
-8.52623e-06      5.95205      72.5999 
0.000207847      13.7788      43.4708 
-0.000100829      12.3989     -124.484 
-2.44275e-05      12.2978     -55.8707 
-1.64639e-05      13.8451      134.941 
1.62674e-05      6.34258      178.373 
-4.01648e-05      14.4531     -135.111 
-0.000132695      12.7637     -37.1030 
-3.22754e-05      10.0040      171.724 
5.76913e-05      7.57468     -156.005 
-1.61601e-05      8.25576     -126.927 
-8.41395e-06      12.0377     -51.3419 
-1.63454e-05      9.29425      83.8217 
2.38190e-05      8.68596      167.502 
-2.33486e-05      8.52273     -178.522 
5.36915e-05      10.2828     -15.6864 
8.27495e-06      8.94872     -31.3815 
8.26036e-06      8.61398     -27.2213 
-3.62016e-05      9.42960     -157.948 
-8.22662e-06      3.68999      125.064 
-0.000139338      10.8451      24.8646 
9.94683e-05      12.4738      139.748 
-0.000146517      5.15795     -156.217 
-1.57984e-05      3.74768     -135.219 
1.56015e-05      11.6101     -38.7055 
-8.13654e-06      3.96984      128.661 
-3.84926e-05      11.0036      48.0212 
8.10060e-06      10.5391      146.612 
4.48005e-05      5.54969      155.746 
2.32119e-05      8.90422     -31.4035 
0.000227123      11.3834     -124.333 
-8.03321e-06      12.0537      136.614 
2.99618e-05      7.20116     -115.855 
-0.000301637      12.0255     -51.4145 
5.25771e-05      6.71322     -127.863 
-5.17209e-05      10.2775      127.808 
-7.99606e-06      9.61147     -171.261 
-3.82741e-05      11.4325      133.157 
-6.08514e-05      7.35417      171.870 
-5.21902e-05      9.51836      161.756 
7.95279e-06      10.0209     -53.9281 
-0.000113784      9.85812     -86.5088 
2.33116e-05      10.6635     -42.0337 
1.52461e-05      13.3102     -43.9653 
-2.31005e-05      3.64562      35.1785 
-1.54934e-05      3.68635      25.0366 
2.27548e-05      11.4602     -36.7694 
8.78315e-05      13.1783      139.494 
-3.75647e-05      11.9268      49.2838 
-0.000162238      12.7193     -130.025 
-2.23332e-05      10.8425     -40.2138 
7.83020e-06      12.5306      137.781 
1.48689e-05      10.3696     -31.5127 
-3.68232e-05      11.4629      122.385 
1.52770e-05      11.6335      147.210 
-1.53958e-05      12.5896      133.713 
-2.26202e-05      13.8594      135.000 
3.72360e-05      13.5030      42.5992 
-2.22367e-05      10.5670     -151.881 
-2.90294e-05      9.98183      171.823 
2.96462e-05      4.02608      139.028 
1.52291e-05      12.1904     -44.6010 
-1.49312e-05      4.09413      76.4426 
3.67500e-05      10.8774      64.2835 
0.000114265      13.0313      141.793 
8.49405e-05      14.0999     -45.2868 
1.50918e-05      10.6632     -27.4793 
2.74430e-05      7.52945     -80.2110 
6.34883e-05      12.5593      137.775 
-7.63173e-06      5.64255      130.977 
-4.96426e-05      9.65394     -109.862 
-4.08885e-05      10.2791     -146.989 
-2.25870e-05      11.7045      33.4996 
7.61168e-06      5.59268     -32.4405 
-7.61866e-06      5.03348      54.5447 
8.63987e-05      11.2229      35.6454 
-7.59076e-06      9.52838      31.0899 
0.000162832      11.4394     -116.474 
-7.57345e-06      6.07331     -93.7759 
-2.19914e-05      8.43247      133.273 
-0.000179326      10.0807      32.5248 
1.47896e-05      10.4805      111.964 
-7.55736e-06      9.30948      85.4415 
-1.45130e-05      6.89473     -31.4792 
7.53001e-06      9.03899      151.450 
-1.46780e-05      12.3091     -55.7926 
2.09542e-05      10.7587      150.243 
-4.34685e-05      8.74711      119.144 
-7.39309e-05      11.8824      131.928 
3.53041e-05      9.15813      59.1248 
7.45764e-06      11.3944     -124.414 
-6.40332e-05      14.0174      136.100 
1.46100e-05      6.26130      178.716 
-7.43643e-06      3.70166      125.320 
2.82476e-05      10.6485     -42.1067 
-5.49890e-05      9.09381     -167.553 
-2.18448e-05      5.65536      131.127 
2.13333e-05      12.5327      49.8549 
2.64259e-05      6.82378     -132.384 
2.16422e-05      7.91610     -42.0300 
-0.000167566      14.4389     -135.168 
-2.85229e-05      10.4420      138.493 
7.39030e-06      9.86390      99.8070 
7.37652e-06      2.67449      42.8739 
7.38037e-06      11.2715      137.876 
9.10462e-05      8.99437      151.442 
-1.45390e-05      10.2844     -11.4428 
-2.16669e-05      3.73333     -135.000 
2.78295e-05      11.6781      147.237 
-5.32077e-05      12.2354      136.126 
2.13147e-05      4.04541      57.7220 
-5.58281e-05      12.5756      133.646 
3.48328e-05      7.96562     -82.6447 
-7.31305e-06      9.11439      27.0144 
-7.31614e-06      8.94050     -13.3201 
2.13110e-05      8.02822      87.4286 
0.000246513      12.7566     -142.644 
-0.000193512      11.6820      33.6921 
1.43374e-05      8.83153     -137.204 
-2.79147e-05      11.7192      47.3510 
5.99639e-05      10.0315      99.2939 
-5.48607e-05      3.62969      35.3559 
7.25526e-06      8.14711     -24.0461 
-7.25169e-06      10.4864     -66.2690 
-0.000239405      13.0936     -40.4770 
-4.08877e-05      11.4611      133.161 
2.10730e-05      12.1104      141.973 
2.79712e-05      9.99670      57.1676 
7.22140e-06      2.68832      43.1903 
-7.20105e-06      7.90648      134.081 
-1.42736e-05      10.1431     -65.9114 
-3.99132e-05      12.7218     -129.896 
1.39730e-05      9.74028      109.178 
-4.02357e-05      11.8797      44.8644 
-6.74716e-05      11.6724     -127.341 
-7.12482e-06      10.4839      46.7779 
4.11664e-05      2.68938      42.5802 
-7.12311e-06      7.27337      150.330 
-2.07634e-05      9.13244      26.9567 
-5.84867e-05      10.9553      123.835 
1.39951e-05      11.2996      137.872 
-1.39046e-05      13.9526      133.026 
-5.33967e-05      11.8219      122.777 
-2.72966e-05      9.30795      85.5613 
0.000212789      13.5179      42.5411 
3.96947e-05      10.1244      68.8097 
0.000114478      11.1446      116.199 
1.39273e-05      8.13691     -24.2345 
-1.38119e-05      9.23728     -11.2378 
-2.07204e-05      5.62727      131.113 
2.02771e-05      6.46367     -134.374 
7.01796e-06      12.2048     -44.5342 
0.000157115      12.7343      136.781 
-0.000232308      10.1173     -65.9672 
-2.05225e-05      3.73396     -134.568 
-6.97337e-06      3.94511      128.210 
1.35615e-05      9.48031      110.498 
-2.01641e-05      10.9666      123.923 
-5.77701e-05      13.3454     -40.6859 
4.65815e-05      13.0782      47.3555 
-1.99185e-05      4.46176      5.65594 
6.95215e-06      10.0095      77.1879 
-0.000290397      14.0455      136.095 
-6.93498e-06      8.49069     -112.576 
-5.86192e-05      9.54604     -66.2822 
6.88521e-06      3.86871     -3.84808 
-2.00295e-05      10.4706      46.8557 
-1.35574e-05      10.6483     -144.789 
2.68410e-05      6.22112      178.894 
-2.69694e-05      10.5199     -149.240 
-6.86766e-06      11.6988      33.6371 
-1.36376e-05      7.83573      74.7593 
3.87187e-05      9.46306      80.0178 
1.34202e-05      6.70080     -127.726 
-6.99768e-05      9.49912      161.718 
1.33974e-05      4.05467      139.000 
-6.82746e-06      10.1941     -86.9619 
-0.000148006      10.4140      138.505 
6.80024e-06      7.20969     -115.994 
-0.000196953      10.2886      80.9403 
-1.34463e-05      11.4738      122.471 
3.82914e-05      1.23684     -14.0447 
4.46441e-05      7.94471     -42.0407 
-8.33778e-05      12.6523     -36.5790 
-1.32586e-05      7.35133      172.026 
-0.000143932      14.2429      135.967 
-6.76738e-06      10.3042     -11.4204 
-1.31855e-05      10.4038      47.4144 
-6.75009e-06      9.93243      131.490 
-5.80232e-05      5.47533      130.554 
-6.73636e-06      12.7297      132.135 
-5.07424e-05      9.91478      173.979 
-1.29741e-05      12.0845     -127.403 
-1.97248e-05      9.68426      20.6818 
1.31015e-05      10.8869      64.4258 
1.30739e-05      10.2350      113.859 
-8.99984e-05      10.2651      127.718 
-6.69156e-06     0.820313     -135.000 
2.59072e-05      10.6334     -42.1799 
-0.000190562      12.7799     -37.0482 
-6.40657e-05      7.83062      74.8971 
-4.88978e-05      12.1125      38.4979 
-1.92924e-05      9.33430     -176.806 
-6.66044e-06      8.77468      119.195 
4.40806e-05      4.03463      57.9652 
-6.64713e-06      9.89092      131.395 
-6.64717e-06      6.04597      130.167 
-1.94692e-05      12.9657     -51.4500 
-5.75193e-05      12.7428      132.200 
9.85724e-05      9.98573      57.2653 
-1.31139e-05      9.20835     -133.854 
-3.17073e-05      13.9387      132.965 
-1.30702e-05      7.29098      150.409 
-1.93943e-05      9.14102      26.7922 
1.91025e-05      9.12492     -115.442 
-6.56692e-06      12.4375     -129.914 
5.68696e-05      2.70377      42.3004 
-1.27735e-05      8.47198     -112.629 
-6.58330e-06      11.7324      47.1409 
-3.20427e-05      3.71977     -134.346 
-1.91341e-05      10.3233     -11.3990 
6.55622e-06      7.19149     -116.065 
8.09377e-05      14.1280     -45.2883 
-1.91115e-05      11.7670     -44.3102 
-1.90807e-05      9.21741     -11.2624 
-1.27302e-05      10.6765      35.2371 
6.53897e-06      10.8759      116.659 
-1.29940e-05      12.3315     -51.1208 
6.52119e-06      8.02912      87.2895 
-6.51011e-06      10.5037     -152.067 
4.31524e-05      6.95364     -164.484 
-2.48256e-05      10.1746     -86.9561 
-3.03128e-05      10.2500      94.3624 
-3.75453e-05      11.5017      122.502 
-1.90708e-05      9.02292      174.402 
-3.14024e-05      12.4150     -124.433 
0.000121295      13.0650      47.4184 
6.47984e-06      4.36313     -48.3395 
4.31012e-05      4.97437      115.224 
-2.49337e-05      9.66085     -109.975 
-1.28403e-05      10.5025     -149.184 
9.14168e-05      12.5443      137.713 
-1.28523e-05      12.0466     -130.354 
6.46165e-06      8.63298     -147.491 
-6.47065e-06      9.27623      83.6885 
9.67946e-05      10.3789      15.5374 
-1.89492e-05      9.84951      131.294 
-6.45967e-06      11.7571      46.7224 
-1.28470e-05      14.4251     -135.223 
3.06050e-05      8.15539     -24.1761 
-0.000107242      12.4040     -124.358 
-5.61643e-05      5.39978      180.000 
6.44011e-06      10.1339      13.3489 
3.12761e-05      6.20086      178.891 
-6.44662e-06      12.3441     -141.645 
7.47922e-05      10.8809     -70.2329 
-9.71990e-05      14.2980     -135.395 
6.11514e-05      7.29283     -72.1132 
-5.45706e-05      12.0961      130.776 
6.41991e-06      11.9948      139.938 
-6.61658e-05      12.2760      44.4725 
-1.26476e-05      10.2454      171.016 
-1.89060e-05      10.9756     -152.781 
1.27113e-05      12.4452      139.759 
4.33520e-05      4.37829     -48.5157 
-6.38826e-06      9.79661     -146.830 
4.28115e-05      10.8497      116.613 
6.38100e-06      9.83139      48.2982 
-2.48474e-05      5.48852      130.714 
0.000114409      11.7316      29.4049 
1.26570e-05      10.7763      150.297 
-6.36362e-06      5.26329      178.039 
-1.23696e-05      12.0808     -127.533 
6.36359e-06      9.78325     -105.654 
9.12147e-05      8.48015     -90.1369 
-1.25217e-05      11.7896     -138.576 
1.24261e-05      7.96315     -82.7839 
3.71113e-05      10.1536      13.3225 
-6.05514e-05      12.9498     -51.3941 
2.43338e-05      8.78192     -175.953 
-1.25462e-05      3.61318      35.5418 
-2.45387e-05      12.5622      133.582 
0.000113758      12.1706     -33.4030 
-6.29019e-06      9.17589     -3.37554 
-6.06943e-05      12.0335     -130.280 
1.23996e-05      7.59320     -156.067 
-2.44850e-05      11.7432      46.7944 
-1.24834e-05      11.8219      32.7772 
3.64565e-05      11.9662      139.950 
-6.30959e-06      12.3437     -51.0503 
1.17809e-05      10.0625     -116.055 
1.85148e-05      9.01217      151.504 
-6.28101e-06      9.19496     -133.591 
-1.23970e-05      10.7298      144.177 
3.66702e-05      1.70006      98.7846 
-6.22692e-06      7.87835      133.869 
1.21101e-05      5.99186     -50.1467 
6.58424e-05      11.7797     -40.1785 
6.22520e-06      8.00987      87.1379 
6.61555e-05      9.33337     -58.7637 
-6.21206e-06      8.76482      119.080 
-6.20121e-06      8.15503      118.893 
3.64207e-05      10.8033      150.255 
1.82226e-05      11.5208      152.724 
4.19709e-05      9.45957      80.1387 
1.83567e-05      10.7594     -70.7892 
1.22014e-05      10.1412     -176.267 
7.12631e-05      2.71745      42.6164 
-3.04642e-05      3.70564     -134.122 
-4.78508e-05      11.9939     -45.8111 
-2.40896e-05      9.15911      26.7351 
-1.80991e-05      9.35453     -176.813 
1.22306e-05      11.1762      148.016 
-1.82863e-05      11.8694      131.858 
-4.18382e-05      9.17293     -15.9441 
-1.81961e-05      9.18100     -133.500 
6.13643e-06      12.2409      42.9456 
-6.14266e-06      11.4750      133.235 
-6.13105e-06      9.19729     -3.48944 
9.52137e-05      10.1758     -105.619 
-2.41938e-05      7.84422      75.0771 
-4.17168e-05      13.9249      132.904 
-4.77616e-05      12.7564      132.268 
-1.19928e-05      5.26264      178.260 
-7.15884e-05      14.0854      135.117 
3.38353e-05      10.0540     -115.955 
-7.64890e-05      8.98448     -52.4142 
3.55881e-05      12.9024     -43.4918 
6.10686e-06      12.4298      139.699 
-1.20118e-05      4.36089      1.31136 
-2.40856e-05      11.8043     -138.639 
-0.000106575      5.45995      130.692 
1.78794e-05      11.8724     -148.291 
-1.20363e-05      10.4782     -66.3704 
1.21218e-05      12.6114      138.601 
-7.10694e-05      12.4099     -51.4122 
1.19649e-05      13.6807     -131.919 
-1.12083e-05      9.58093     -66.1090 
-6.05350e-06      11.8792      45.0000 
6.05080e-06      8.74769      157.128 
-3.57247e-05      12.6680     -36.5264 
2.97973e-05      11.3493      127.700 
-2.39033e-05      9.73462      17.5788 
-1.20742e-05      5.44725      130.536 
-7.70211e-05      11.5122      122.584 
2.98980e-05      9.59423     -78.4545 
1.20137e-05      7.53279     -80.0648 
-1.18912e-05      10.2398      180.000 
6.50307e-05      12.4583      139.688 
4.74286e-05      8.72116      157.199 
4.13740e-05      12.2261      43.0103 
3.54335e-05      10.7909     -70.6238 
-6.00991e-06      10.4170      47.3354 
6.00798e-06      5.53400      108.762 
-8.27766e-05      5.38031     -179.784 
-1.79151e-05      12.3099     -129.199 
-6.00600e-06      8.96490     -13.4163 
1.19344e-05      11.1934      148.071 
2.95292e-05      12.5985      138.668 
-6.00148e-06      8.99686     -52.3119 
5.33447e-05      10.8557     -70.2988 
1.78940e-05      6.18099      179.075 
-2.36587e-05      11.8839      131.795 
-2.95217e-05      10.9163      123.721 
-5.99329e-06      9.81294     -146.892 
1.77691e-05      11.7055      147.205 
-5.97123e-06      11.8389      32.7241 
5.97955e-06      12.6559      137.562 
1.18966e-05      10.8485      150.268 
-4.14119e-05      12.5196      133.511 
6.49635e-05      9.59019     -78.5731 
-7.66070e-05      12.6800     -36.6000 
-3.55863e-05      9.54165     -86.1536 
-2.96511e-05      3.69220     -133.468 
1.19111e-05      10.1174      68.9128 
-4.13278e-05      14.3124     -135.452 
2.26935e-05      12.8732     -127.742 
5.98192e-06      10.6512     -141.019 
-5.96628e-06      9.87529      112.254 
-3.53845e-05      7.83903      75.2201 
-2.35878e-05      13.9945     -133.088 
5.97474e-06      9.12382     -115.722 
5.95773e-06      13.0590      136.674 
-1.19141e-05      9.21596     -143.206 
5.95778e-06      6.49154     -135.375 
-2.36033e-05      9.52472      161.641 
-1.18066e-05      11.8970      131.866 
-5.94281e-06      8.45978      133.469 
5.94686e-06      11.3720     -124.249 
-4.12719e-05      11.8080      150.134 
2.94062e-05      10.8492     -70.3958 
3.38170e-05      1.72252      99.3515 
-3.53057e-05      9.93846      17.0846 
-4.11147e-05      12.9372      42.6188 
-5.90936e-06      8.82847     -76.3724 
-1.76669e-05      9.93707      173.875 
-2.94213e-05      11.1140      156.339 
-6.46652e-05      11.6669     -119.246 
-1.17849e-05      8.98859     -13.5130 
-3.52902e-05      9.19634     -142.956 
-1.18031e-05      10.8734      24.6779 
-3.52213e-05      12.2971     -129.126 
5.90849e-06      10.2389     -7.97036 
-3.52681e-05      10.0643      32.5846 
2.93231e-05      6.16074      179.072 
-3.52411e-05      10.8214     -108.870 
1.17686e-05      10.1726      13.2971 
-1.17707e-05      9.37366     -176.944 
2.32119e-05      1.23208     -13.1306 
2.94099e-05      10.1804     -176.395 
2.94160e-05      12.6690      137.496 
-1.18012e-05      9.26380     -84.4266 
-1.76550e-05      11.2084      27.5258 
-1.17758e-05      11.7339     -139.632 
-1.17630e-05      10.5166      120.514 
3.52098e-05      9.31068     -74.6813 
5.91632e-06      5.51482      108.829 
1.17521e-05      11.4112     -124.357 
-1.17542e-05      11.8195     -138.704 
-5.90452e-06      13.3174     -40.6745 
-4.69321e-05      11.6598      33.8803 
5.28108e-05      10.2590     -7.95467 
-5.28165e-05      14.2153      135.969 
-2.93368e-05      10.6132     -107.887 
1.17675e-05      10.8927      150.283 
5.88172e-06      1.51559     -149.041 
-3.52006e-05      12.1094      130.849 
5.88810e-06      11.1831      148.156 
-1.17846e-05      11.7568      46.5853 
-3.52071e-05      3.67829     -133.239 
5.88667e-06      10.1290      69.0609 
1.76031e-05      11.7136     -125.128 
-4.68978e-05      9.56386     -85.9237 
5.87718e-06      8.84207      167.726 
-5.86538e-06      9.83664      131.208 
-1.17436e-05      9.19974     -143.130 
-1.75632e-05      13.9117      132.845 
1.17335e-05      11.2003      148.211 
-5.88216e-06      11.8615      32.5379 
1.76199e-05      6.80107      88.9885 
-5.87374e-06      11.6805     -127.556 
5.87112e-06      9.11537     -115.612 
2.93120e-05      8.48022     -90.2687 
1.76038e-05      12.7799     -142.952 
-1.75725e-05      14.1181     -43.6217 
-1.75641e-05      10.1410      45.8814 
-1.17167e-05      10.1735     -87.0701 
1.17205e-05      11.3773      127.715 
2.34055e-05      10.9197      150.241 
1.17228e-05      10.1221      69.1641 
-2.34521e-05      12.7701      132.335 
1.17193e-05      1.52317     -150.063 
-5.86392e-06      12.2320     -124.338 
1.17215e-05      10.1878      13.1642 
5.86145e-06      4.00384      136.823 
-2.92669e-05      14.0993      135.172 
-5.86253e-06      12.7063     -129.955 
5.85414e-06      8.82014     -89.7416 
-1.17108e-05      8.11042     -61.0968 
1.75975e-05      12.5092     -143.845 
1.75984e-05      11.4800      126.570 
1.17053e-05      9.32288     -58.8702 
5.86584e-06      11.9507      139.888 
5.86527e-06      5.93443     -128.573 
2.34182e-05      12.7490      136.844 
-1.75435e-05      12.7921     -37.1206 
1.16982e-05      3.63395      174.953 
1.17035e-05      6.93412     -164.439 
-5.86175e-06      11.7429      46.6571 
-1.17019e-05      10.2527      127.629 
-1.17081e-05      9.17721      26.6782 
5.86507e-06      12.5532      36.1226 
-5.86943e-06      9.88298      112.363 
5.85890e-06      13.6677     -131.858 
-1.64917e-05      10.4145      159.894 
-1.16962e-05      12.7038     -130.083 
-1.17073e-05      11.9948      133.920 
1.17485e-05      14.1423     -45.2300 
5.85664e-06      11.2270      35.5034 
-1.17266e-05      9.03255     -13.5733 
-2.26610e-05      5.88503      46.3743 
-5.85573e-06      12.1284      38.4384 
-5.85326e-06      9.43989      179.877 
5.86410e-06      10.8602      114.015 
5.86036e-06      11.7225      147.259 
-1.17399e-05      11.7979      150.219 
-5.86517e-06      9.92901     -87.5744 
-5.85981e-06      9.15345     -15.9789 
-5.84999e-06      9.74785      17.4293 
1.17209e-05      12.6977      137.491 
1.17353e-05      8.94067     -90.6396 
1.17130e-05      9.61408     -78.4787 
5.85843e-06      13.0161      136.619 
5.86596e-06      12.7607     -41.8870 
-5.85077e-06      8.96903     -52.3382 
5.85389e-06      6.69810      161.725 
-5.84249e-06      12.0932     -127.609 
5.85256e-06      13.1033      38.7418 
5.86272e-06      9.38048      139.757 
-5.85950e-06      14.1321     -43.6812 
5.86631e-06      13.4582     -131.628 
-1.17169e-05      5.36016     -179.575 
5.87237e-06      11.4307     -116.387 
-5.85409e-06      3.66606     -132.570 
5.85116e-06      11.3867      154.063 
-5.87256e-06      11.8004      122.615 
9.17085e-05      13.9541      137.208 
7.39690e-05      11.7073      42.4387 
-2.86661e-05      9.24688     -161.721 
5.13517e-05      13.7759      45.8254 
9.12186e-05      13.1660      50.9194 
7.31179e-05      10.8875      64.6589 
-2.09066e-05      10.2492     -70.1495 
7.23230e-06      13.7614      45.7666 
1.41372e-05      13.1310     -41.7268 
3.89131e-05      11.2041      147.983 
2.67924e-05      11.5311      152.414 
-2.48908e-05      9.25249     -143.525 
-5.22771e-05      12.8568      135.818 
2.40422e-05      13.1462     -41.6680 
2.42440e-05      10.0283      99.1797 
-1.17727e-05      9.25678     -143.700 
2.27598e-05      10.6471     -42.2607 
-2.48716e-05      9.34835      18.9760 
-4.14025e-05      9.70201     -144.310 
-1.26127e-05      11.7217     -29.3186 
2.44355e-05      10.6326     -42.3314 
3.36346e-05      11.5221      152.500 
-5.10914e-05      10.2559     -70.0470 
-1.80417e-05      5.96416      71.0202 
-1.21873e-05      12.1339     -32.6169 
-4.02768e-05      10.5155      137.235 
-5.05865e-05      10.1253     -65.8663 
3.43489e-05      8.99446     -73.8603 
-6.19293e-06      9.22764     -161.681 
-1.77663e-05      10.4099      16.5212 
1.15900e-05      10.6081     -44.0829 
-5.57227e-05      10.6002     -121.891 
2.87080e-05      8.50963      47.7627 
6.09012e-06      8.90504      167.681 
2.84844e-05      8.76636      157.179 
1.18087e-05      8.66870     -148.104 
-1.70270e-05      10.1905      11.6616 
1.69933e-05      10.9418     -59.2155 
3.34433e-05      8.46239      18.6053 
-2.26732e-05      5.24239      178.253 
-1.71376e-05      12.7664      141.997 
1.16289e-05      8.92483      167.708 
1.67734e-05      3.98963      136.631 
3.88753e-05      4.56669      12.3920 
-1.13571e-05      10.7759     -50.0453 
5.83869e-06      4.98304      115.434 
1.62317e-05      9.72729      108.956 
1.11106e-05      11.3866      116.160 
1.65637e-05      10.1241      69.7760 
1.09941e-05      12.3526      37.4992 
3.25663e-05      10.6279     -27.5782 
-1.11548e-05      9.16489     -91.8768 
-1.12213e-05      12.0204     -130.207 
-2.19532e-05      9.70812     -61.8483 
2.18988e-05      9.72097      108.848 
-1.11652e-05      9.32919      19.0164 
-1.64547e-05      8.80675      79.5336 
1.64567e-05      5.97689     -50.0268 
-2.15884e-05      9.29861      83.5781 
1.09541e-05      8.10903     -24.4804 
2.69417e-05      7.95921     -41.9467 
-5.62890e-06      5.87107      46.5174 
1.63857e-05      11.0877      139.097 
5.55293e-06      6.07219      17.8394 
1.09749e-05      11.2213      148.038 
1.08243e-05      8.66248     -147.926 
1.08705e-05      7.51023     -80.1857 
1.09031e-05      5.01005      115.544 
-1.62136e-05      12.3354     -141.848 
1.08527e-05      11.5118      53.0494 
-1.08370e-05      12.8849      135.819 
5.48140e-06      12.6317      40.9557 
1.08104e-05      8.93739      138.172 
5.46141e-06      8.90074      167.808 
1.07641e-05      10.0405     -89.5418 
-5.41873e-06      10.1946      11.7731 
-1.58526e-05      9.34317      85.9472 
-1.06679e-05      10.7311     -65.4403 
-5.40664e-06      10.3905      16.5530 
-3.80577e-05      8.80322      79.6585 
5.37939e-06      8.84087     -89.3532 
5.37438e-06      10.9315     -59.3067 
-5.38096e-06      5.95784      71.1976 
5.37455e-06      9.17488      59.1873 
-5.34746e-06      6.91202     -31.3915 
-5.33303e-06      8.75700      119.260 
-1.61938e-05      9.21457     -161.527 
-5.32891e-06      9.31667      19.1748 
1.05730e-05      12.6342      40.8287 
-5.30393e-06      5.51455      131.028 
-1.56733e-05      9.94040     -113.730 
2.11730e-05      8.73984      157.250 
-1.04085e-05      10.6004     -138.671 
-5.23792e-06      11.0953     -50.4857 
-5.23501e-06      10.2398     -179.887 
5.22692e-06      6.72347      161.082 
1.03995e-05      8.49603      47.8638 
5.21751e-06      10.9592     -59.2697 
-1.10196e-05      12.1444     -32.6944 
-5.54191e-06      9.34457      85.8278 
1.60465e-05      10.0059      99.0872 
-5.50011e-06      9.29637      83.7022 
1.60097e-05      10.9549     -119.654 
5.39151e-06      8.83213     -137.386 
1.06299e-05      9.16854      59.0161 
-1.05990e-05      6.92868     -31.3075 
1.05324e-05      13.0704     -48.9713 
-1.04959e-05      9.69758     -144.149 
5.33352e-06      12.2676     -49.2987 
5.32816e-06      11.3538     -31.3106 
-5.30590e-06      8.44907     -112.253 
-1.04460e-05      11.1596      134.055 
-5.28119e-06      13.0392      134.753 
5.27358e-06      5.00134      115.335 
-5.22216e-06      8.10064     -61.2222 
5.22557e-06      10.1311      69.6685 
5.22724e-06      12.2395     -49.3061 
5.21502e-06      1.88642     -111.124 
-5.20555e-06      10.9459     -135.147 
5.17838e-06      10.8888      64.8937 
-5.18140e-06      4.43626     -41.1595 
5.15629e-06      4.54691      12.4468 
-5.14622e-06      10.6434     -144.637 
-5.14539e-06      8.97214     -52.5167 
-5.12899e-06      6.64048      14.1210 
! Tentative model.
! Flux (Jy) Radius (mas)  Theta (deg)  Major FWHM (mas)  Axial ratio   Phi (deg) T \
! Freq (Hz)     SpecIndex
-5.53448e-06      8.80295      79.6602 
