! Center RA: 12 21 31.69052,  Dec: +28 13 58.50011 (2000.0)
! Established model.
! Flux (Jy) Radius (mas)  Theta (deg)  Major FWHM (mas)  Axial ratio   Phi (deg) T \
! Freq (Hz)     SpecIndex
 0.0786857    0.0202604     -90.0000 
 0.0489873      0.00000      0.00000 
0.00201013    0.0600310      90.0000 
0.00378017    0.0633577      71.3505 
 0.0102920    0.0802914      90.0000 
0.00635799    0.0828082      75.8378 
 0.0215162    0.0397705     -90.0000 
 0.0319503     0.286260      102.105 
 0.0325038    0.0998015      90.0000 
0.00912875    0.0600310     -90.0000 
 0.0165588     0.412220      104.011 
 0.0102261    0.0446338     -63.0042 
 0.0135649     0.266484      103.019 
0.00989416    0.0633577     -71.3505 
0.00433890     0.121759      99.5784 
0.00349296     0.120062      90.0000 
0.00889588     0.427819      100.817 
0.00180856     0.271765      107.184 
0.00159806     0.431906      103.360 
0.00509102     0.247514      104.036 
0.00211511    0.0562440     -45.0000 
0.000815291     0.407936      101.351 
0.00123438    0.0286526     -45.0000 
0.00303909     0.164706      103.973 
0.00325095    0.0446338     -26.9958 
0.00504346     0.141777      98.2159 
0.000607278     0.481892      94.7340 
0.00118213     0.501338      94.5500 
0.00113030     0.520413      92.2312 
0.000323507    0.0720098      56.4755 
0.000320576     0.398226      107.547 
0.00123089     0.101837      78.5245 
0.00274340     0.373757      105.487 
0.00306876     0.262662      98.7088 
0.00242775     0.392593      104.727 
0.00411215    0.0896014      63.6495 
0.00182373     0.521537      94.3734 
0.00200389     0.243395      99.4042 
0.00137617     0.541740      94.2100 
0.00405514     0.687137      98.3513 
0.00230721     0.710331      99.7310 
0.00233568    0.0848966      45.0000 
0.00148228     0.463888      97.4354 
0.000808590     0.561200      94.0638 
0.000632343     0.707189      98.1129 
0.00106455     0.730308      99.4623 
0.00135439     0.603304      95.7106 
0.00373020     0.583147      95.9087 
0.000786866     0.483985      97.1250 
0.000703235     0.749560      99.2171 
0.000585327     0.282706      98.0871 
0.000269597     0.769565      98.9755 
0.000391115     0.792179      100.203 
0.00246098     0.184432      102.453 
0.000498612     0.812127      99.9497 
0.000632667     0.645096      97.1498 
0.000268662     0.503350      96.8496 
0.000240028     0.815725      101.300 
0.000633388     0.280627      94.1402 
0.00164047    0.0720098     -56.4755 
0.00163446     0.835602      101.027 
0.000401901     0.562998      96.1209 
0.000490058     0.461703      94.9415 
0.00220814    0.0896014      26.3505 
0.000606110     0.441522      95.1680 
0.000594530     0.379669      108.435 
0.00212449    0.0802914     -90.0000 
0.00239057     0.858779      102.105 
0.000267552     0.420705      92.7603 
0.000665718     0.386554      111.285 
0.000686619    0.0828082     -75.8378 
8.92986e-05     0.300838      86.1384 
0.00122971     0.440193      92.6380 
8.70953e-05     0.279894      90.0000 
0.000388906     0.302778      82.4523 
0.000298945     0.107434     -21.7271 
0.00139096     0.878599      101.828 
0.000679477     0.394056      113.929 
0.000554180     0.306099      78.6901 
6.91212e-05     0.260423      94.4620 
0.00106551     0.126477     -18.3275 
6.35508e-05     0.913801      100.073 
0.000268106     0.933756      99.8559 
0.000298802     0.957327      100.843 
0.000108452     0.420241      115.375 
6.10434e-05    0.0828082     -104.162 
0.000119455     0.460433      92.5220 
0.000927913     0.402700      116.565 
0.000772937     0.101837     -101.476 
0.000688996     0.863255      103.420 
0.000511497     0.439727      90.0000 
0.000546649     0.976496      100.628 
0.000696851     0.844290      103.727 
0.000142511      1.00028      101.554 
0.000853650     0.100252      36.7841 
0.000287844     0.420705      87.2397 
0.000477009      1.02868      103.499 
0.000408449     0.107434      21.7271 
0.000431286     0.145849     -15.8239 
0.000587334     0.310708      75.0240 
0.000348242      1.05749      105.348 
0.00139607     0.107434     -111.727 
0.000141890     0.704700      96.5423 
0.000201606     0.601626      93.7903 
0.000444183      1.08805      107.085 
0.000281366     0.152624     -23.1616 
0.000291271     0.621094      93.6713 
8.86135e-05     0.702680      94.9008 
0.000412940     0.523472      96.5851 
4.33618e-05      1.09418      108.099 
0.000760702     0.429314      117.819 
0.000124645     0.701240      93.2513 
0.000165846      1.11429      111.035 
0.000757199     0.170734     -20.5855 
0.000391984     0.422095      84.5935 
0.000217052     0.953723      99.6476 
3.99928e-05     0.641314      93.5554 
0.000191202      1.12172      112.001 
0.000259559     0.700404      91.6576 
0.000250779     0.412159      119.085 
0.000286379     0.849131      105.006 
7.66611e-05      1.08248      106.098 
7.33206e-05     0.747714      105.543 
0.000412790      1.05231      104.284 
0.000338876      1.20887      106.331 
0.000106380      1.12917      112.919 
0.000794575     0.116465     -121.027 
0.000139650     0.700111      90.0000 
0.000195176      1.11054      113.326 
9.82351e-05     0.753177      106.973 
6.68347e-05     0.640401      91.8130 
9.59998e-05     0.874671      100.529 
3.26284e-05     0.910591      98.8646 
3.23330e-05     0.720372      90.0000 
3.20426e-05     0.620151      91.8722 
6.28103e-05     0.640080      90.0000 
0.000214540     0.189835     -18.4349 
0.000159481     0.509625      101.293 
0.000444214     0.526180      98.7772 
5.18250e-05     0.845593      96.7782 
0.000482457     0.848223      98.1373 
0.000268493     0.506166      99.1272 
0.000667735     0.680152      88.2930 
0.000711638     0.868284      97.9480 
4.20036e-05     0.349279      76.7101 
0.000273885     0.679851      90.0000 
4.10657e-05     0.354273      73.6379 
0.000116109     0.438632      114.241 
0.000102512     0.227911      105.272 
7.59391e-05     0.373757      74.5128 
0.000317557     0.891319      99.0579 
3.66977e-05      1.04767      103.250 
0.000308411      1.19830      104.506 
0.000168357     0.791053      110.721 
0.000103947     0.379669      71.5651 
0.000240945     0.116465     -31.0271 
0.000182015     0.398226      72.4528 
0.000154827     0.134233     -26.5651 
0.000473148      1.03341      104.551 
0.000507355      1.22288      105.153 
3.14752e-05      1.21792      104.267 
0.000308765     0.438758      120.073 
0.000117637     0.780402      112.620 
0.000258429     0.100252      53.2159 
0.000189545      1.03869      105.633 
2.87480e-05     0.412220      75.9891 
0.000548653     0.661537      86.5534 
0.000175171     0.107434      68.2729 
0.000131163     0.417588      73.2909 
0.000245004     0.788112      113.929 
0.000179400      1.11872      114.279 
2.67741e-05     0.209153      106.680 
2.58473e-05     0.888355      97.7673 
0.000162835     0.865715      96.6199 
0.000111176     0.189835      108.435 
0.000207332     0.449253      122.310 
9.54232e-05     0.431906      76.6398 
7.25527e-05      1.24172      104.918 
2.38450e-05     0.377263      57.9221 
9.18931e-05      1.12720      115.217 
0.000391646      1.24709      105.818 
0.000100926     0.681013      86.6521 
4.54656e-05     0.387976      55.4801 
0.000126100     0.446997      79.6521 
0.000124479      1.15388      115.665 
6.34454e-05     0.384386      51.3402 
0.000232705     0.796545      115.261 
5.80604e-05      1.01919      105.940 
2.09808e-05     0.529508      100.864 
0.000119164     0.459977      124.364 
0.000184410     0.863684      95.3341 
0.000164622     0.396866      49.1402 
1.94131e-05     0.519084      105.684 
0.000140653      1.16280      116.565 
0.000201453     0.450910      77.2126 
5.55839e-05      1.25276      106.709 
3.68318e-05     0.481580      131.589 
0.000228642     0.209153     -16.6796 
3.47859e-05     0.170734      110.586 
0.000649426      1.43162      118.352 
5.12329e-05     0.456404      118.798 
0.000315529     0.509625      138.163 
9.97582e-05      1.27784      107.286 
0.000271943     0.642889      84.6421 
1.74387e-05     0.506146      108.408 
1.74055e-05      1.02494      107.029 
9.67161e-05      1.27218      106.447 
6.39772e-05      1.01816      109.503 
0.000448568     0.128090     -128.817 
4.75778e-05      1.13565      116.108 
0.000141458     0.700404      88.3424 
6.00035e-05     0.465536      115.491 
4.73413e-05     0.410407      47.0005 
3.11537e-05      1.23684      104.045 
0.000111427     0.197181      114.029 
8.20131e-05     0.883858      95.2120 
0.000191441     0.395830      45.0000 
8.45031e-05      1.38775      105.043 
4.34787e-05      1.23208      103.131 
0.000197098     0.483220      114.495 
1.46702e-05      1.02511      110.571 
0.000223485     0.455823      74.7283 
0.000113268     0.805400      116.565 
5.46779e-05     0.227911     -15.2717 
1.40658e-05     0.943561      111.116 
2.69886e-05      1.22764      102.210 
0.000222312     0.474259      117.619 
0.000111609      1.17200      117.451 
5.28140e-05     0.924690      111.568 
1.34948e-05      1.22366      101.317 
0.000201173      1.06303      73.5990 
6.34607e-05     0.234065     -20.0616 
0.000285672      1.40660      104.837 
4.90060e-05      1.21985      100.384 
9.59325e-05     0.913675      113.217 
9.83575e-05     0.622720      84.4680 
8.91987e-05     0.932329      112.726 
0.000267459     0.253192     -18.4886 
9.26142e-05     0.882249      93.9016 
3.35940e-05      1.21648      99.4798 
0.000449068     0.141141     -135.000 
5.26178e-05     0.512006      141.366 
0.000193532     0.410407      42.9995 
5.99283e-05      1.21331      98.5360 
0.000156815     0.461573      72.3015 
0.000227674      1.06870      72.5956 
6.67716e-05     0.814312      117.793 
0.000143935     0.605655      82.3819 
0.000238931     0.527985      142.739 
3.04257e-05     0.113549      45.0000 
0.000377620      1.44135      119.060 
5.93084e-05     0.903799      114.842 
9.19196e-06     0.322129      97.0919 
8.49466e-05      1.21047      97.5876 
0.000154380      1.02414      102.397 
0.000124812      1.11162      81.7332 
5.85401e-05     0.977233      137.490 
8.47553e-06     0.921540      114.332 
0.000374740      1.69306      128.775 
8.99068e-05     0.178866      116.673 
3.41123e-05      1.18112      118.291 
0.000133842      1.28401      108.149 
1.59746e-05      1.41383      118.742 
0.000336496     0.991703      138.251 
0.000138915     0.518891      152.434 
4.59538e-05     0.876255      117.158 
7.54051e-06     0.475398      75.3715 
0.000262838     0.271765     -17.1841 
5.56775e-05     0.987971      111.381 
0.000211611     0.480914      73.0353 
0.000130511      1.40155      104.036 
8.45766e-05     0.227911     -164.728 
2.36610e-05      1.20805      96.6703 
6.03368e-05      1.07494      71.5651 
5.83432e-05     0.796445      118.473 
4.16940e-05     0.894329      116.565 
2.86818e-05     0.243395     -170.596 
9.66898e-05      1.08805      72.9147 
5.50312e-06      1.00686      110.961 
9.26891e-05      1.22817      96.5605 
8.38793e-05     0.381773      42.8494 
8.08506e-06      1.42368      119.456 
8.79936e-05     0.528183      155.401 
0.000103845     0.459987      0.00000 
2.06329e-05     0.501727      113.536 
7.47881e-06     0.116465      31.0271 
6.09197e-05      1.09418      71.9005 
1.73722e-05     0.467874      70.0247 
3.96594e-05      1.54497      111.243 
1.60885e-05     0.885686      118.324 
9.31985e-06      1.39677      103.230 
3.26443e-06     0.262662     -171.291 
1.23369e-05     0.247514     -165.964 
5.95149e-06      1.08152      70.5467 
-2.91241e-06     0.493986     -21.3812 
0.000474053      11.0304     -25.4511 
-0.000457295      4.26785      93.4877 
-0.000188267      6.49695     -23.0144 
-0.000417253      9.80999     -48.9699 
0.000300423      10.3222     -119.991 
0.000368723      9.55889      173.631 
-0.000209693      6.47108     -22.9168 
0.000290790      7.49833      24.9237 
-0.000264978      11.0108     -65.7616 
0.000159409      6.31147     -59.5386 
0.000181755      10.6511     -70.8170 
0.000202327      12.6208     -36.2363 
-0.000228143      11.6496      59.9123 
0.000176171      10.5876      71.1528 
5.49859e-05      4.42939     -118.306 
0.000103466      5.92480      145.448 
-0.000198299      5.25417     -9.64393 
-0.000176713      7.14032      23.2618 
0.000148272      7.57804      117.852 
-0.000192680      10.1799     -81.1848 
0.000124545      9.03036      141.837 
0.000123110      9.22846     -138.953 
7.37409e-05      4.99386     -6.67010 
0.000146919      8.75708      20.1756 
-0.000145745      9.56025     -81.7007 
0.000215641      4.43868     -118.528 
-5.03895e-05      10.2031     -81.0898 
2.63136e-05      1.80869     -125.101 
0.000122979      9.93529      57.0781 
0.000144820      9.17393      20.0179 
-0.000120726      9.86848      19.5372 
0.000167945      6.76206      153.662 
-7.44240e-05      9.23425      18.0404 
-5.04140e-05      9.25845      33.2779 
-0.000143878      6.77345      140.151 
-9.81824e-05      9.86710     -5.58182 
-7.40047e-05      6.81375     -84.2737 
-0.000120962      2.90491     -7.51053 
0.000166793      10.4139      136.869 
0.000212216      9.19340      134.296 
-0.000118703      9.65119     -2.73182 
-0.000119140      8.17135     -50.6606 
0.000141919      8.55255      143.559 
0.000118150      3.44847     -69.9839 
9.44976e-05      1.79277     -125.460 
4.90113e-05      5.87958     -76.6288 
-0.000116484      8.94229      106.367 
-7.18629e-05      4.54810      39.2887 
0.000140315      4.52125     -99.4185 
-0.000139564      3.31980      83.7714 
-0.000115407      5.75740     -43.7326 
-9.30007e-05      9.80791      39.2061 
-6.93554e-05      7.59883     -158.703 
-4.77731e-05      7.24205     -6.18022 
-2.41853e-05      1.44407     -36.5483 
-6.99535e-05      5.71286      36.0285 
4.61320e-05      4.99394     -59.4275 
-4.62748e-05      3.91059      123.535 
-0.000113205      5.77557      150.774 
4.58323e-05      5.89725      145.503 
-6.79284e-05      7.64293     -69.9496 
-2.34047e-05      2.98985      145.357 
-4.59077e-05      11.8893     -129.607 
-4.55811e-05      6.25109      97.3519 
8.98694e-05      12.4132     -144.773 
-4.47005e-05      10.1248     -1.80928 
-2.28988e-05      6.84215     -91.5083 
-4.44838e-05      9.21498      18.0794 
6.66657e-05      8.45341      64.3471 
-4.48492e-05      12.8419     -44.3679 
-6.65903e-05      7.14835      23.4110 
-4.45371e-05      13.1791     -137.520 
2.25094e-05      6.97577     -140.469 
2.23998e-05      8.12263     -136.995 
-4.40398e-05      5.13507     -62.1393 
2.23630e-05      3.40710     -86.3001 
-2.22821e-05      5.59709      6.56668 
4.37604e-05      10.3552     -136.409 
-2.22305e-05      9.88652     -5.57083 
-2.22032e-05      5.66130      137.294 
-2.21032e-05      9.75661      60.1223 
2.20202e-05      4.62987     -140.254 
-2.18942e-05      9.10663      4.40921 
-2.18898e-05      9.27477      33.2118 
-2.17822e-05      5.44034     -89.7866 
2.17854e-05      6.58490      27.8908 
2.17470e-05      9.19198     -17.2131 
2.17170e-05      1.20142     -18.4236 
2.15569e-05      9.91892      57.0168 
0.000143429      9.37255      57.9017 
2.49833e-05      8.67563      47.1486 
0.000128022      8.67409      46.9631 
0.000190842      8.91580      48.9107 
-0.000231244      12.2569     -140.961 
-0.000173242      5.70051     -179.193 
-0.000171708      11.1538      26.5202 
4.40135e-05      9.75576      76.8488 
-0.000115994      3.54183      74.9450 
-0.000135443      3.57983     -161.763 
-6.40341e-05      10.9241     -115.250 
-4.18300e-05      11.1622      26.3825 
0.000124213      10.7025      155.255 
-7.91305e-05      9.12104     -34.9086 
0.000317984      9.36180      58.0068 
-7.79990e-05      9.06295     -8.62858 
-7.52212e-05     0.701240     -86.7487 
0.000135195      9.74067      76.7056 
-7.45459e-05      2.11299      162.942 
0.000221193      7.88860      14.9893 
-8.82616e-05      5.61991      67.1771 
1.97043e-05      10.0915      77.1759 
-8.56127e-05      10.9328     -115.346 
-0.000156895      8.20920     -101.665 
-0.000133043      6.35622     -6.14000 
-3.65996e-05      1.27791     -110.127 
0.000143886      7.31273     -12.4803 
-9.88811e-05      7.74047      89.5556 
-3.73318e-05      4.20979     -66.4782 
3.61635e-05      3.85691      99.8582 
0.000187012      10.0871      77.2881 
6.92279e-05      11.3305      40.7783 
-5.14705e-05      10.6046      50.8153 
0.000134847      8.89269      113.740 
1.84139e-05      8.25569     -26.6279 
6.93959e-05      4.67167      59.3693 
-8.21585e-05      8.90367      96.8393 
-0.000138384      10.4247      39.7052 
-8.30847e-05      6.02615     -174.670 
1.79788e-05      3.83351      99.6117 
-0.000278052      10.2515      94.4753 
-1.78449e-05      5.20214      95.2969 
6.60722e-05      7.74204     -130.810 
-6.65125e-05      9.13767     -34.8359 
3.31347e-05      8.87631      68.1734 
-0.000103096      4.20174     -66.7315 
7.69532e-05      8.35749      165.732 
-4.93465e-05      9.06004     -8.50660 
6.07174e-05      8.23758     -26.6911 
-4.82375e-05      3.32000      28.4244 
6.92924e-05      6.70693      2.56501 
-6.43318e-05      1.94141      155.010 
1.70387e-05      10.2190     -151.730 
0.000228901      11.4046      152.762 
-7.58887e-05      5.17836      94.8712 
-4.51478e-05      7.94553     -82.6260 
4.09475e-05      2.94707      121.962 
0.000220259      10.5036     -74.8806 
1.66964e-05      8.89512      68.2219 
-3.21475e-05      8.93598     -60.7982 
7.37680e-05      9.34796      115.744 
0.000123614      10.2445     -151.935 
-0.000138703      7.05343      166.552 
4.57593e-05      3.83018      99.3128 
4.43333e-05      8.66079      47.0574 
-0.000122031      11.7364     -50.5312 
-1.59281e-05      8.06866     -127.750 
-5.61808e-05      3.35261      19.5218 
-0.000108162      4.85192     -85.9826 
-6.70209e-05      8.10973     -162.638 
-2.88883e-05      11.1808     -27.2529 
-0.000107801      4.36039      157.902 
-4.41314e-05      11.4665      132.457 
6.44780e-05      10.1845     -56.7783 
4.19942e-05      4.68164      59.1638 
2.77027e-05      2.93639      121.627 
5.70546e-05      6.52213     -46.6177 
4.24593e-05      7.11259      3.38705 
4.17010e-05      8.70562     -98.0568 
-0.000132467      6.67490      166.132 
-0.000201222      6.17769     -54.3523 
-5.56058e-05      7.48916      125.983 
0.000127665      11.3151      40.8453 
-8.32413e-05      9.15369     -34.7662 
5.03698e-05      9.40018      89.7576 
-5.07665e-05      1.29046     -109.004 
8.35009e-05      10.5135     -136.929 
-4.12246e-05      9.04001     -8.52559 
-4.16433e-05      5.93443      51.4273 
-1.46940e-05      6.84896     -67.3289 
5.21706e-05      7.05266     -86.5841 
-2.69190e-05      3.57354     -162.071 
4.07614e-05      7.56079      163.243 
0.000102380      7.37920      81.5856 
-8.51007e-05      8.94588     -60.6849 
6.64526e-05      9.51903      152.197 
2.72231e-05      10.3383     -58.7709 
1.43549e-05      9.28927     -111.207 
-9.25308e-05      12.5561     -139.586 
5.01387e-05      7.40323      47.5181 
-4.09027e-05      11.8659     -124.493 
4.86415e-05      9.00588     -80.4121 
-0.000133281      9.89088     -145.794 
7.60350e-05      6.85047     -56.3099 
1.41033e-05      10.2266     -151.882 
2.75116e-05      6.78355      113.088 
-2.56870e-05      3.15668      22.3401 
1.38915e-05      10.3867     -103.018 
-0.000151851      10.8049      140.860 
-3.81745e-05      9.72970     -34.2796 
-0.000122803      7.49308     -139.765 
2.70983e-05      9.12999      51.8491 
0.000192004      9.28196     -111.090 
-8.81219e-05      10.6823      46.7448 
7.18821e-05      8.84961      70.4573 
0.000150121      10.2348     -84.0537 
1.35703e-05      8.28241      68.7635 
-1.34908e-05      6.00419     -174.837 
1.34917e-05      6.74180      69.1484 
-3.36535e-05      6.12731      10.7209 
-1.33472e-05      8.09353     -127.977 
-0.000140306      7.74066      89.4057 
-1.32547e-05      3.33422      19.6339 
-4.91994e-05      2.27023      14.2751 
-2.54549e-05      3.94373     -103.187 
8.52849e-05      8.20430      55.7271 
-2.57178e-05      11.4654      131.253 
-0.000139467      11.6495      55.8452 
-4.50249e-05      5.94803     -156.624 
-8.22476e-05      12.9528      42.4338 
-2.42978e-05      10.2421     -178.770 
-4.59461e-05      2.09363      162.780 
-1.29926e-05      3.97528      31.2086 
0.000106646      7.31697     -12.6295 
2.20049e-05      8.49955      69.4771 
0.000161820      10.6645     -73.7749 
3.50942e-05      9.50571      106.373 
-2.45651e-05      3.52761      74.5418 
-2.45207e-05      7.54409      143.188 
1.27890e-05      4.70614      19.3595 
-9.88480e-05      5.80526      139.892 
-9.94712e-05      11.8774     -124.574 
8.13122e-05      9.12721      51.6734 
5.18850e-05      6.19541     -15.1590 
4.60792e-05      6.50874     -46.7425 
0.000218892      12.2524     -43.2802 
-0.000172289      8.71260     -135.928 
3.54075e-05      8.31895     -75.6642 
-2.35932e-05      8.92304      96.8244 
2.40245e-05      9.32971      115.798 
2.39028e-05      6.79123      113.239 
2.35655e-05      6.73488      69.3035 
-3.55978e-05      9.17034     -34.6940 
1.22253e-05      8.27510      68.8942 
2.35710e-05      2.02490     -156.732 
-8.49655e-05      10.4724     -131.360 
6.29871e-05      7.39007      47.6296 
-0.000147222      10.4397      39.6368 
-2.30576e-05      11.5601     -144.578 
-3.98663e-05      11.6251      59.7308 
2.18491e-05      10.8172      61.8723 
-2.38010e-05      11.4374      131.241 
-1.21142e-05      6.14648      10.6871 
4.30008e-05      8.53519      67.4007 
1.20590e-05      4.72526      19.2780 
-0.000148979      9.63335     -82.0031 
-4.41338e-05      11.6391     -140.648 
3.30432e-05      11.2982      42.2732 
2.12574e-05      10.3278     -58.8670 
4.39887e-05      6.88841     -133.941 
-7.00661e-05      9.24620      144.416 
0.000218790      8.81018      26.2726 
1.18570e-05      8.64700      47.1557 
4.82550e-05      9.92662      151.215 
-2.17670e-05      7.47727      125.858 
-6.14566e-05      8.67906     -64.9128 
-9.07618e-05      9.78665     -120.182 
-2.24291e-05      5.93771      51.7021 
-0.000149138      13.4924      137.705 
0.000101788      9.83597      119.743 
4.30043e-05      6.25265     -133.702 
7.18590e-05      7.85197     -98.7899 
-1.15118e-05      7.28710     -139.008 
-3.22561e-05      5.44035     -28.0743 
-5.26847e-05      2.82710     -140.450 
-1.14724e-05      8.98240      29.4753 
2.18471e-05      7.54211      163.200 
5.11737e-05      10.7174      146.726 
1.14389e-05      8.32399     -75.5291 
-2.12006e-05      8.10555     -128.086 
-0.000157545      11.9785     -32.5213 
-1.13437e-05      5.62650      35.1610 
-3.08430e-05      5.68025     -179.190 
-6.35709e-05      8.21332     -101.804 
4.02607e-05      10.6131     -161.088 
1.12587e-05      9.91688      151.317 
1.12559e-05      2.92990      122.172 
-9.83194e-05      6.69384      166.173 
-3.98361e-05      7.55580      143.070 
2.99158e-05      9.50111      152.140 
-5.97284e-05      5.64946     -59.3508 
-4.55832e-05      6.27328     -69.0806 
0.000136424      8.90299      49.0053 
-1.11218e-05      8.97228     -35.1043 
2.15656e-05      9.05460      60.4883 
-5.92619e-05      11.4507      131.318 
-6.63340e-05      7.05799      166.398 
1.10073e-05      4.75622      18.8895 
-4.96182e-05      4.85338     -85.7440 
1.09393e-05      2.28558     -8.55309 
-5.83877e-05      2.24583      13.9202 
-2.65892e-05      11.3206     -36.1620 
-3.97772e-05      5.08263      1.80206 
-4.54537e-05      11.2261     -27.2502 
2.08946e-05      10.0472     -57.3532 
-6.44862e-05      11.6656      55.8990 
-3.12506e-05      9.18700     -34.6220 
0.000128263      7.37637      81.7355 
-7.53231e-05      12.2335      134.535 
-2.05180e-05      7.27182     -138.904 
-2.05709e-05      6.84146     -67.4797 
1.06469e-05      2.04284     -156.948 
1.06347e-05      10.0899      175.568 
4.77777e-05      4.76894      64.9390 
1.05646e-05      10.6702     -73.6705 
-2.04914e-05      8.09040     -162.595 
-4.66181e-05      11.3087     -36.0791 
-8.03780e-05      10.3787      118.045 
2.03423e-05      10.3823     -102.913 
-0.000167592      8.67691      95.2895 
-1.04377e-05      12.3193      45.8563 
1.04055e-05      6.71593      69.2424 
1.03866e-05      6.86173     -56.1692 
2.73948e-05      9.73603      76.8217 
-1.03214e-05      7.27953     -5.99386 
2.00773e-05      10.2624     -151.988 
-4.52858e-05      5.65430      35.2044 
2.75653e-05      9.13932      51.5775 
-4.75893e-05      11.1712      26.4756 
-3.71363e-05      9.83111     -124.725 
9.76244e-05      8.29932     -75.6295 
2.00765e-05      10.4628     -77.6383 
-1.92882e-05      11.3567      134.358 
8.24300e-05      10.1101      175.577 
7.99012e-05      10.6615     -31.8096 
-2.83307e-05      8.95572     -35.1788 
1.93791e-05      5.18989     -59.6756 
-1.01554e-05      10.0620      29.9283 
-1.01247e-05      7.88847     -36.0262 
-9.13497e-05      9.67331     -130.640 
0.000260692      8.46614     -85.5265 
6.01757e-05      8.04993      46.5108 
1.94611e-05      2.05372     -157.689 
-1.00053e-05      6.25190      64.0101 
9.99268e-06      9.48370      53.0567 
6.54738e-05      8.24318      156.854 
3.67517e-05      4.74368      19.2002 
-5.41703e-05      7.28159     -6.14654 
-3.47698e-05      3.80797     -103.667 
1.82651e-05      1.18292     -18.7223 
-3.69773e-05      11.5385     -144.382 
0.000154360      6.87384     -134.058 
9.49222e-05      10.2154     -84.0423 
-2.79264e-05      7.87115     -38.5011 
0.000130579      12.4569      137.473 
-1.84380e-05      3.52227      74.8594 
-9.77016e-06      5.14248     -11.4378 
9.75070e-06      8.26809      69.0204 
-7.23212e-05      11.8613     -124.627 
9.72882e-06      8.68424     -91.8470 
-0.000122208      10.2030     -61.4275 
-4.03587e-05      10.6962      46.6658 
-3.71030e-05      9.20307     -34.5530 
9.66228e-06      2.26555     -8.62929 
-9.65862e-06      9.74645     -34.2125 
1.81378e-05      10.1981      141.129 
-9.58240e-06      9.46666      24.9969 
7.65091e-05      12.3473      38.8202 
-1.71274e-05      3.34589      19.1948 
3.55004e-05      7.65938     -103.744 
0.000111829      10.4672     -77.5300 
9.50970e-06      12.4420      137.410 
1.86926e-05      4.73270     -37.7929 
2.49757e-05      2.05086      66.4270 
9.49409e-06      2.57087      23.3699 
-2.74812e-05      5.43172     -28.3565 
-4.33025e-05      8.08436     -162.732 
0.000119167      7.06349      28.9612 
0.000164377      14.0164     -45.8655 
-5.87179e-05      11.8498     -124.546 
9.40828e-06      6.97251     -123.415 
-9.38802e-06      9.63019      20.1647 
9.40426e-06      5.04705      161.277 
-2.50560e-05      5.78978      139.763 
2.62250e-05      10.4985     -74.9834 
2.40362e-05      5.99368      97.6695 
9.33206e-06      9.06422      60.3810 
3.39611e-05      5.96663      23.2989 
-9.29349e-06      5.20084      142.032 
2.59702e-05      12.0681      41.7738 
-6.75369e-05      9.26380      174.427 
9.60359e-05      12.6693     -143.924 
0.000130712      7.39529     -122.747 
-5.76232e-05      9.94103     -33.1791 
4.51605e-05      8.03600      46.6156 
5.87132e-05      12.4558     -36.9065 
-2.55932e-05      9.97301     -104.399 
1.73034e-05      8.63324      47.2543 
-5.53559e-05      12.6407     -130.445 
-9.12344e-06      6.19621     -33.9460 
0.000125083      12.6169      47.8927 
-9.11723e-06      4.00935      30.9141 
-9.28089e-05      10.6830      19.0127 
3.98795e-05      10.5278     -137.002 
2.47993e-05      10.0363     -57.4506 
-1.75501e-05      12.1615      131.132 
8.99628e-06      9.33822      115.906 
-3.99943e-05      5.56156      7.02146 
-2.59810e-05      7.24323     -138.919 
-1.59935e-05      8.11807     -128.198 
8.94343e-06      8.26086      69.1516 
-1.72373e-05      4.83171     -85.9657 
3.23498e-05      3.97176     -72.1093 
4.04232e-05      10.2884     -152.188 
-2.11396e-05      9.94427      130.514 
-2.38957e-05      2.09972      162.251 
1.72313e-05      2.08337     -158.601 
-8.83345e-06      9.95170     -129.127 
7.27959e-05      7.79469     -60.1450 
2.47978e-05      10.0828      77.3963 
6.89872e-05      8.46220      64.2234 
-8.82224e-06      3.08041     -89.6232 
3.29967e-05      4.74873     -37.6431 
5.29687e-05      5.04059      161.495 
5.33540e-05      7.95709      52.3520 
-8.71435e-06      3.45566     -167.968 
3.85052e-05      11.3079     -126.587 
8.70072e-06      6.58970     -56.2647 
0.000105880      14.4251     -45.2234 
-8.67366e-06      5.94112      51.9765 
-0.000119333      3.01175     -140.388 
-5.86576e-05      12.2853     -54.0050 
8.62633e-06      9.49990      53.1301 
-8.61715e-06      5.96663     -156.701 
-3.88324e-05      6.97344      121.271 
4.59616e-05      10.3327     -8.46081 
3.60154e-05      10.6443     -31.8671 
-0.000226490      12.1288      39.0412 
1.62405e-05      6.84491     -56.0748 
-8.51949e-06      13.2886      42.8650 
-1.66999e-05      11.6505     -32.7361 
0.000115714      9.80870      119.703 
-1.61311e-05      5.08331      2.03031 
-3.20488e-05      9.21976     -34.4816 
-5.19053e-05      5.65598     -59.6281 
-8.48228e-06      6.24301      13.9026 
8.46721e-06      6.26677     -133.578 
8.46236e-06      10.3178     -58.9598 
8.43814e-06      4.69205      58.9514 
0.000101585      8.23294      156.676 
-5.87702e-05      5.41390     -28.4583 
-1.60586e-05      11.3709      134.431 
5.63710e-05      8.55168      117.584 
-8.36349e-06      5.43182      147.484 
5.68905e-05      9.01958      20.6453 
-1.58762e-05      9.77434      39.5206 
4.57471e-05      9.83457      54.4339 
5.70042e-05      9.02904     -68.8370 
-2.43776e-05      9.67868      19.5588 
-4.53219e-05      7.26013     -6.00994 
8.29674e-05      9.07122     -13.5144 
8.29323e-06      9.07425      60.2698 
-6.40618e-05      13.0737      133.265 
8.26320e-06      8.09248      69.9066 
3.87346e-05      9.04844     -120.704 
8.19039e-06      11.3004      40.9100 
8.18387e-06      8.09658     -154.701 
2.32862e-05      7.33674     -12.5949 
-3.87497e-05      11.8834      130.767 
6.21296e-05      11.0857      125.011 
-3.04757e-05      8.94316      96.8090 
-8.13929e-06      1.30893     -108.726 
1.58745e-05      2.09501     -159.319 
4.82525e-05      11.2922     -126.646 
-3.77745e-05      8.93916     -35.2537 
0.000195886      12.2103      140.784 
-1.59590e-05      5.94002     -156.803 
6.58381e-05      6.57617      28.1236 
-5.31866e-05      6.26608     -69.2536 
0.000154722      10.1288      175.696 
-2.10854e-05      6.52934      5.44720 
8.05951e-06      3.80862      127.531 
2.94898e-05      11.4226      152.809 
1.47978e-05      5.38670     -145.896 
-6.43867e-05      11.5344     -144.244 
-9.30057e-05      5.55063      51.4382 
-2.23706e-05      9.86274     -145.825 
3.37924e-05      10.9924     -26.4723 
-5.67869e-05      12.1644      33.5322 
-7.98484e-06      7.44898      125.823 
2.22271e-05      10.5939     -161.053 
-0.000146098      11.6675     -32.6823 
-4.16572e-05      9.07184     -160.287 
6.12901e-05      8.95910     -149.253 
-2.28523e-05      7.22853     -138.817 
1.53544e-05      9.21339      110.321 
2.80885e-05      8.79925      133.528 
-5.41542e-05      6.97508     -22.5924 
-7.92264e-06      7.85530     -38.5931 
2.23981e-05      10.6415     -141.258 
-1.53801e-05      8.70628     -15.7277 
1.52605e-05      10.3119     -123.691 
-2.16517e-05      9.93893     -129.037 
-7.83123e-06      6.88421      126.967 
-7.81978e-06      11.4636      131.391 
6.21091e-05      10.4517     -102.598 
0.000108824      11.7821      123.718 
-7.79902e-06      2.25060      14.4023 
7.80237e-06      7.86904     -98.6269 
2.88221e-05      9.40029      89.6341 
4.07264e-05      8.63242     -22.7624 
2.81981e-05      10.0534     -57.5127 
6.00461e-05      9.48387      152.085 
0.000114560      11.8813     -135.954 
0.000154512      12.0016      148.562 
-7.78134e-06      7.03830      166.359 
-7.76883e-06      9.96268     -5.29836 
8.88351e-05      9.80106      89.1797 
0.000159010      12.3631      38.7614 
2.26338e-05      12.4720     -36.8506 
-6.22292e-05      9.13265      12.3930 
-4.85483e-05      6.54951      174.570 
7.67791e-06      8.98860     -20.8528 
-7.11193e-05      10.7076      43.8642 
-4.87189e-05      10.1486      60.3529 
4.11010e-05      7.55090      22.4210 
7.85341e-05      2.41825     -113.383 
-7.78200e-05      12.3858      138.667 
1.34174e-05      9.74245      77.1883 
-1.48323e-05      6.71352      166.214 
6.22548e-05      6.21388     -76.4085 
-0.000237693      12.1976     -146.571 
-7.60794e-06      10.0602     -5.13097 
7.58471e-06      11.2871      40.8322 
1.47310e-05      5.07728     -4.74747 
4.66821e-05      10.4714     -102.574 
-7.57342e-06      10.1221      58.8235 
7.55711e-06      14.0023     -45.9250 
2.74212e-05      4.49074     -22.7988 
7.54891e-06      7.11834     -42.8384 
7.53089e-06      10.7005      146.667 
-5.52407e-05      12.5715     -139.646 
-2.93304e-05      12.4694     -39.0771 
-2.82234e-05      9.65281      19.4857 
-7.47465e-06      12.0546     -145.543 
2.77775e-05      10.0680      77.2637 
7.44686e-06      10.4737     -75.0617 
6.04830e-05      4.47755      54.8184 
-5.62629e-05      9.91866     -61.0557 
1.44242e-05      11.2041     -65.3093 
7.38890e-06      7.36817      104.298 
-7.37010e-06      9.84715     -124.660 
3.46445e-05      4.76419     -37.4998 
-1.45296e-05      5.91441     -156.903 
-1.43617e-05      10.1017     -5.22526 
0.000131624      13.7109     -41.8054 
2.74038e-05      5.09912     -4.94710 
4.11595e-05      8.99327      61.7264 
-7.30288e-06      3.43658     -167.900 
-3.47165e-05      9.63608     -81.8882 
0.000126428      13.3306     -132.931 
3.96606e-05      9.70390      36.7033 
2.74324e-05      10.0554     -73.4773 
4.32306e-05      8.75969     -20.5882 
-2.09159e-05      10.3695      117.950 
2.72801e-05      10.2369     -83.9450 
-3.86573e-05      9.94251     -5.30914 
2.76814e-05      4.41931     -165.586 
-2.74427e-05      10.7087      43.7139 
2.05849e-05      9.74679      77.0765 
-7.18828e-06      2.48654      58.4876 
-6.13815e-05      12.7293      45.7643 
2.73454e-05      8.90035      93.8674 
3.83748e-05      7.36337      104.151 
-5.22921e-05      8.69673     -64.9673 
-4.80947e-05      11.8554      130.760 
4.70310e-05      8.66791      120.352 
7.13357e-06      9.95026      5.76950 
-5.03273e-05      10.8286     -145.460 
0.000217254      13.2590      138.301 
8.09421e-05      10.4219     -168.710 
5.12332e-05      13.9444      45.2311 
-1.99116e-05      7.50798     -139.861 
7.09781e-06      2.21109     -5.70672 
-0.000151947      8.96560      96.9174 
-7.07362e-06      5.66601      35.3718 
-1.36842e-05      9.81059     -128.294 
2.54015e-05      9.04727      60.3200 
-2.72104e-05      9.52144      3.85462 
-3.02185e-05      4.76035     -126.630 
-3.35564e-05      2.50383      58.7300 
-7.02038e-06      9.81958     -124.628 
0.000136784      12.4518     -37.0370 
-7.04559e-05      12.4567     -39.0048 
-3.68431e-05      3.36503      19.0814 
-1.37097e-05      9.23647     -34.4105 
-6.98147e-06      12.3048      45.7906 
2.52772e-05      7.37674     -176.115 
8.18137e-05      9.83475      31.7825 
-1.37874e-05      10.2232      123.346 
-2.01974e-05      10.4967     -126.477 
-1.35788e-05      6.30605      29.6552 
6.94903e-06      8.86714      87.6720 
-1.98821e-05      3.91638      123.124 
6.20502e-05      9.97042      5.75779 
1.32079e-05      6.91692      56.0789 
-7.86927e-05      5.54219      7.04612 
-2.00886e-05      9.24363      174.414 
6.07737e-05      9.73450     -60.5915 
6.90933e-06      7.72309     -175.542 
3.75149e-05      9.05841     -120.810 
-9.55960e-05      11.6152      59.8139 
6.88777e-06      9.20663      110.207 
-2.00776e-05      11.6566     -32.5985 
-1.95766e-05      6.37969     -25.0368 
-6.86305e-06      9.43555     -123.586 
2.56938e-05      13.5773      134.402 
0.000122287      10.1290     -15.9308 
4.42183e-05      10.1793     -74.7375 
-1.90111e-05      8.21734     -101.937 
-6.80398e-06      5.77265      139.354 
-5.48762e-05      5.68193      35.2580 
-4.12531e-05      8.70827     -2.49899 
-0.000121544      7.26220     -6.16302 
-1.95831e-05      12.0713     -145.598 
1.88928e-05      7.10382     -53.3577 
-1.31420e-05      9.76364     -124.571 
-1.91922e-05      9.65959      19.5990 
-1.88896e-05      10.2024     -68.0100 
-4.69791e-05      12.1813     -146.520 
-3.17820e-05      9.06037     -89.6204 
-1.94799e-05      10.0498     -92.5078 
-0.000109610      10.2201     -61.4799 
3.21791e-05      12.8553     -134.558 
-6.72110e-06      9.04599     -8.77471 
-6.71481e-06      12.7151      45.8297 
-2.48504e-05      5.55031     -170.875 
-4.13640e-05      8.93876     -118.172 
4.92221e-05      7.74329     -175.554 
0.000293200      14.2570      135.908 
4.06380e-05      8.85331     -45.3674 
-4.69422e-05      11.5871      136.609 
-0.000135356      13.6285     -42.8000 
-1.29599e-05      11.6076      59.6804 
0.000228598      9.70563      68.9867 
-1.28178e-05      8.95662     -118.111 
1.90991e-05      6.78867     -52.4233 
-6.58078e-06      10.0804     -5.12068 
1.89796e-05      12.7869      133.859 
1.28467e-05      9.50916      117.426 
-0.000102498      12.6770      143.727 
2.43345e-05      5.05980      161.568 
-0.000108323      6.89582      169.473 
-1.25275e-05      9.68812     -130.565 
-2.54247e-05      8.71311     -136.117 
-3.73776e-05      8.62043      145.681 
-6.22428e-05      8.92324     -35.3260 
-1.28059e-05      9.02908     -8.92138 
2.48034e-05      10.7813      62.0099 
3.57430e-05      10.9561     -155.633 
-2.99572e-05      10.1948     -68.1156 
4.10517e-05      9.82361     -50.8686 
-2.54013e-05      11.8421      130.686 
6.44972e-06      12.1252      143.924 
3.04980e-05      4.42440     -165.332 
-6.44473e-06      9.76703      47.4909 
-6.22168e-05      10.3516      118.003 
-1.80057e-05      5.53396     -22.3049 
1.25379e-05      7.71369      9.85268 
2.38012e-05      10.3063     -152.241 
0.000142629      10.7158      114.126 
-2.40604e-05      9.50261      3.98472 
3.02309e-05      6.90249     -134.062 
9.71282e-05      11.3367      35.2344 
0.000106137      11.7116     -44.0317 
-5.01654e-05      5.52630      67.8894 
-6.36752e-06      2.19968      53.1262 
-5.52999e-05      8.63145      145.574 
-8.94560e-05      12.1813      33.4796 
-4.05628e-05      10.4920     -126.628 
1.21088e-05      7.38532      159.554 
-6.33784e-06      9.75786     -145.689 
-1.22355e-05      11.9924      49.8020 
6.31595e-06      7.20653     -163.224 
2.45309e-05      8.92056      93.8586 
-3.47341e-05      9.84372     -109.834 
-7.37618e-05      11.5299     -144.103 
7.90998e-05      8.44396      64.1636 
-1.85750e-05      12.2474     -45.0000 
9.91172e-05      12.1371      143.847 
0.000108505      9.36344     -109.982 
7.67003e-05      9.29648     -23.5854 
-2.44405e-05      9.62388     -80.7933 
-6.25931e-06      10.6893      33.6287 
-3.02566e-05      12.4004      138.727 
-1.21541e-05      5.88783     -157.007 
-2.31338e-05      10.0998     -5.11080 
2.38716e-05      10.0360     -73.4444 
6.25492e-06      4.87216      147.747 
-5.58165e-05      9.39157      13.2990 
-2.37921e-05      11.7227     -141.860 
-2.38359e-05      2.47640      58.8725 
-3.55522e-05      12.2595      124.365 
-2.90695e-05      12.2193      134.468 
1.19435e-05      2.20924     -5.20324 
5.25984e-05      10.9047     -24.0269 
5.10168e-05      9.23147     -2.85613 
-2.30926e-05      9.70082     -130.652 
-6.19723e-06      9.73608     -124.538 
-1.19323e-05      6.95613      121.358 
-1.79641e-05      12.2810     -53.8779 
6.18519e-06      12.2895     -135.329 
-6.31934e-05      11.8141      130.673 
4.52522e-05      11.1637      152.472 
-2.83677e-05      12.5632     -141.855 
3.86039e-05      4.88867      147.869 
3.49266e-05      9.65749      56.5717 
-1.21473e-05      10.3563      55.9426 
6.12730e-06      10.5274     -136.849 
1.76359e-05      9.85197      31.7204 
-7.59870e-05      12.3128     -39.0661 
-1.19789e-05      11.5977      59.7636 
4.97501e-05      9.32068      115.959 
-1.19770e-05      11.2853      144.084 
-4.94250e-05      12.1229     -32.5362 
6.10322e-06      4.78028     -37.3520 
5.92332e-05      8.61565      126.789 
-4.99003e-05      10.1189     -137.161 
-1.20284e-05      9.15062      135.797 
-1.76525e-05      8.64816      145.649 
-6.05985e-06      5.39676     -28.5571 
-0.000180557      11.9615     -32.5735 
5.70617e-05      12.8695     -134.622 
6.40513e-05      7.81161     -60.2162 
-3.86669e-05      10.9060      133.885 
2.30567e-05      6.20915     -76.5902 
-7.15467e-05      9.63371      19.5259 
-2.81956e-05      10.2500      94.3624 
9.00476e-05      12.8015      133.796 
-3.90101e-05      10.0507     -92.6232 
2.16025e-05      9.51850      117.535 
4.96297e-05      12.2897     -135.463 
-8.96092e-05      8.69852     -136.024 
2.91350e-05      10.6821     -67.6597 
-1.17672e-05      10.7063      50.1523 
0.000110897      12.5471      128.790 
-3.41986e-05      8.99286     -9.08348 
8.74871e-05      10.6591     -73.8756 
1.17767e-05      3.47322     -118.930 
2.81788e-05      10.3297     -73.8111 
4.34813e-05      8.63737     -9.46069 
-3.88041e-05      11.8014      130.601 
1.70283e-05      11.3253     -62.4400 
-1.16852e-05      9.54182     -159.895 
1.72713e-05      8.16112     -77.2569 
-2.85549e-05      11.0753      27.7665 
-1.17499e-05      9.72503     -124.443 
3.83785e-05      10.3892      33.9345 
-5.89477e-06      9.54165      3.84645 
-5.87855e-06      9.59222     -92.8698 
0.000138122      11.7652      123.773 
-3.22951e-05      13.5525      41.0510 
0.000186451      10.8862     -24.0704 
0.000177215      13.2309      138.311 
6.00075e-05      9.46597      152.027 
2.23039e-05      12.4432      137.542 
-2.24195e-05      10.2645     -11.4652 
-5.82138e-06      9.75211      47.4105 
-3.35357e-05      7.33386      122.867 
3.27714e-05      10.0429     -57.6066 
0.000142821      11.2976     -152.710 
-5.79522e-05      7.47150      38.5861 
1.11871e-05      13.7623      135.884 
-1.14729e-05      12.2612     -44.9355 
5.79712e-06      9.26192     -95.4533 
-1.13852e-05      9.24642      132.105 
-2.22053e-05      9.04011     -89.6195 
-4.32564e-05      9.62078     -80.9080 
5.76219e-06      6.35870      139.849 
1.10058e-05      8.56108      117.704 
-0.000157266      10.5076     -13.4289 
1.71276e-05      10.1482      175.704 
5.75562e-06      5.11855     -4.92826 
-5.74711e-06      13.0871      133.327 
-5.76000e-06      3.88835      123.037 
1.12015e-05      9.45975     -112.499 
-5.74434e-06      9.40788     -123.556 
5.72302e-06      7.22593     -163.270 
-0.000104557      10.7227     -19.6193 
-5.71614e-06      12.5473     -141.798 
3.21370e-05      8.90168      93.9927 
2.20368e-05      8.14136     -77.2255 
-2.72341e-05      10.7401     -143.558 
2.65103e-05      11.4738      57.5291 
-5.69982e-06      8.08167     -58.3583 
6.88732e-05      9.28209     -95.4414 
1.11720e-05      3.83598      127.585 
-4.75929e-05      12.3871      138.797 
5.97578e-05      11.3081     -147.716 
2.18396e-05      9.01014     -68.7905 
-4.26438e-05      11.2434     -27.2046 
-5.67931e-06      9.92308     -5.31956 
3.22722e-05      11.3259     -38.6900 
6.38731e-05      12.8840     -134.559 
-4.31709e-05      13.5529      136.555 
5.65578e-06      6.42109     -134.493 
1.63091e-05      6.64793      107.506 
-9.17596e-05      10.1136     -68.6628 
1.09501e-05      10.1742     -74.8435 
-9.58627e-05      12.1976      33.4290 
6.30691e-05      10.4714     -77.4258 
5.63677e-06      12.2199     -134.204 
-1.64056e-05      10.2905      96.6959 
3.71332e-05      10.7002     -67.6994 
-1.65407e-05      12.6598      36.7782 
6.52419e-05      13.6855      138.436 
-3.79390e-05      8.88191     -91.1618 
-5.61295e-06      9.14469     -165.176 
1.09911e-05      9.80791     -50.7939 
-4.24077e-05      5.56590      51.5634 
5.60138e-06      7.53218      22.4798 
3.26879e-05      10.1004     -79.1576 
1.11437e-05      8.74177      162.557 
9.60191e-05      10.1497      175.594 
-1.08853e-05      8.79977      97.7086 
1.63076e-05      7.66238      148.883 
1.63554e-05      7.47794      34.5384 
-3.69449e-05      9.68749     -134.583 
5.08691e-05      10.0305     -73.5512 
0.000110599      12.2196     -134.338 
5.55590e-06      8.78686      50.9130 
-2.09197e-05      9.92498     -5.43602 
-2.69872e-05      12.4596      141.713 
-2.59909e-05      5.87995     -157.188 
7.20771e-05      12.2382     -43.3428 
6.74174e-05      11.6334     -55.4376 
-8.58499e-05      12.6760      36.7234 
-2.08808e-05      2.99617     -140.141 
-5.54461e-06      9.16515      135.886 
-5.54927e-06      9.56014     -159.935 
-1.05347e-05      10.3608      118.098 
4.06087e-05      7.12009     -53.4550 
-3.70032e-05      11.9494      34.5673 
4.15944e-05      10.3236     -152.291 
1.09106e-05      13.9581      45.1742 
1.06166e-05      9.91741      58.1054 
-1.07963e-05      9.76695      19.6224 
-7.12401e-05      13.5653      41.1132 
2.09951e-05      7.35845      103.998 
-2.13463e-05      6.56968      174.586 
5.51115e-06      8.32885     -165.964 
-2.07918e-05      10.7193      50.0691 
-3.15187e-05      8.99516      150.131 
0.000134533      10.6925     -67.7999 
-9.62602e-05      12.1121     -32.4554 
-6.14433e-05      5.69365      35.4244 
-5.46278e-06      12.4439     -141.068 
-5.46474e-06      7.27652      166.650 
0.000109835      12.8145     -42.1543 
-3.65843e-05      10.3621      21.5132 
-1.13000e-05      3.00871     -139.856 
3.20325e-05      8.76110      162.597 
7.56920e-05      12.1285      52.6402 
-2.11787e-05      7.32025     -132.233 
-1.58708e-05      3.38348      18.9734 
-1.06950e-05      9.26002      132.198 
1.57865e-05      14.4108     -45.2806 
0.000111393      13.0614     -138.354 
-1.05477e-05      12.0261     -145.913 
-5.41365e-06      2.49376      59.1131 
-1.05572e-05      8.67506      95.1563 
-1.06906e-05      7.73768     -144.254 
-6.10579e-05      10.1200     -5.10058 
6.37988e-05      10.9377     -155.589 
3.99651e-05      12.7100      140.875 
-3.61527e-05      10.6976     -125.948 
1.56378e-05      8.47891     -148.897 
5.37242e-06      8.51904      61.6900 
-7.95555e-05      11.0574      27.8154 
3.49170e-05      12.7130      128.996 
-1.05836e-05      9.17917      135.970 
1.06299e-05      11.3600     -33.8013 
1.05947e-05      6.95872     -134.069 
-5.36015e-06      12.2775      124.648 
-1.06028e-05      10.9930     -62.8280 
1.57442e-05      8.32395     -166.099 
1.56512e-05      10.9478     -155.729 
-2.09393e-05      10.2844     -11.4428 
-5.00218e-05      8.97608     -9.23160 
-5.34478e-06      3.32197      83.4368 
3.45930e-05      2.72256      111.098 
-5.32036e-06      10.0256     -59.2907 
-5.32611e-06      8.97281     -60.6331 
-4.13475e-05      10.2485      94.2536 
5.01713e-05      8.90486     -143.954 
6.47071e-05      12.6230     -138.403 
-1.04854e-05      12.0050      49.7308 
6.44867e-05      10.0920     -78.8012 
2.60169e-05      10.0442     -73.6948 
5.28130e-06      12.9754     -43.0643 
-4.56675e-05      7.32789      123.086 
5.27376e-06      6.44920     -134.500 
2.00454e-05      10.3931     -102.671 
2.49731e-05      10.0911      120.885 
2.01370e-05      8.32126     -8.01392 
-7.41072e-05      11.0908     -116.336 
-4.44418e-05      3.30185      83.3967 
1.00215e-05      7.52856     -13.5168 
5.24197e-06      12.0369     -42.0361 
-8.40179e-05      3.68695      169.054 
-3.01985e-05      12.2890      124.725 
-0.000118454      11.7729      130.590 
3.48891e-05      7.12848     -169.985 
3.42734e-05      9.64634      56.6721 
4.48497e-05      12.0219     -42.1007 
-1.02992e-05      5.69963     -100.721 
2.50444e-05      11.1547      152.561 
-9.91274e-06      7.70940     -144.288 
0.000213971      10.1699      175.603 
4.03735e-05      8.01983     -49.9569 
-9.26184e-05      12.1105      34.5034 
1.51320e-05      11.3159     -62.5310 
5.19276e-06      9.95305     -80.6321 
-1.00576e-05      8.14652     -128.222 
1.02840e-05      9.77678      77.3558 
-1.52724e-05      12.4755      141.771 
5.88935e-05      8.78043      162.637 
3.95318e-05      12.4490      145.340 
3.00216e-05      13.0040     -136.931 
-3.47187e-05      11.0022     -62.7341 
-5.89084e-05      8.88152     -91.0312 
1.98316e-05      11.9595      123.955 
3.42030e-05      12.8117      143.059 
-2.51178e-05      11.4007     -34.6398 
6.40280e-05      11.3492     -33.7195 
-3.44756e-05      10.4804     -126.543 
1.97081e-05      10.3354     -73.7032 
-3.47045e-05      12.4881      141.698 
5.90906e-05      11.3018     -147.574 
1.51458e-05      12.4922     -36.6696 
-1.51608e-05      11.7722     -143.635 
-9.97705e-06      9.90481     -5.44712 
-1.99644e-05      8.66031      89.7369 
1.47238e-05      11.8954     -136.020 
1.02364e-05      13.3102     -46.1558 
3.44701e-05      10.1932     -84.1438 
2.46459e-05      7.38435     -122.615 
-3.92802e-05      13.5068      137.761 
-5.12134e-06      9.83687     -109.723 
-6.83053e-05      10.7870      26.6595 
-5.11357e-06      12.6276     -130.375 
-1.49733e-05      12.7434      45.6990 
6.35743e-05      11.0341      129.777 
3.45928e-05      10.6704     -137.126 
2.46811e-05      6.97283     -134.189 
-3.00522e-05      10.2726      78.8854 
1.01423e-05      5.84407      108.561 
-5.86351e-05      13.5253      136.558 
-2.00635e-05      10.3042     -11.4204 
-4.37356e-05      10.1322     -137.080 
-1.98688e-05      9.19375      136.058 
9.21753e-05      10.4411     -168.731 
5.07919e-06      8.21961     -172.029 
-3.43110e-05      8.76022     -90.3926 
3.45359e-05      9.44808      151.970 
-3.44113e-05      10.0517     -92.7385 
-6.87129e-05      12.2088      33.5084 
-2.93893e-05      5.01760      79.8967 
5.36116e-05      10.0385     -73.8058 
5.06399e-06      8.48659      112.149 
-5.05157e-06      9.28883      77.8186 
3.41820e-05      8.34289     -166.131 
2.91700e-05      8.75647      43.6111 
-5.03960e-06      8.05769     -108.077 
6.32666e-05      12.8838     -134.686 
1.47628e-05      2.51591     -96.3874 
1.47969e-05      10.3952      33.7830 
9.88455e-06      9.43063      115.099 
-5.02550e-06      11.2734      144.167 
3.84906e-05      12.8982     -134.623 
-3.45350e-05      10.2470      94.1406 
-1.46759e-05      9.00527      150.019 
-2.43296e-05      11.4119     -58.3992 
2.41511e-05      12.5604     -43.9688 
-3.88223e-05      9.62696      19.4123 
9.85875e-06      8.13691     -77.3646 
9.96919e-06      11.2122     -65.2187 
2.43787e-05      9.35679     -109.869 
1.47086e-05      9.76145     -60.5441 
2.43871e-05      11.4069      48.6244 
-3.41655e-05      5.66366     -59.9020 
-4.38488e-05      9.97016      4.48503 
7.26082e-05      11.2877     -43.8499 
1.95809e-05      10.4759     -102.682 
-5.00201e-06      12.2929     -53.8016 
3.87334e-05      11.4424      121.274 
2.43552e-05      14.3966     -45.3379 
1.46666e-05      11.1374      152.515 
9.84467e-06      9.95637     -80.5171 
9.79869e-06      5.62423      84.6948 
-1.96939e-05      12.2145      33.3767 
-3.85739e-05      9.68774     -134.413 
-2.90501e-05      8.05142     -107.940 
-4.99059e-06      9.04000     -89.7479 
-2.41631e-05      10.2507      115.914 
-3.86575e-05      10.0522     -8.58195 
3.37971e-05      9.27791     -23.6355 
3.84211e-05      10.4759     -77.3176 
-1.46078e-05      11.7771      42.5237 
1.96445e-05      12.3783      38.7048 
5.30312e-05      13.0178     -136.866 
1.45295e-05      10.1800     -50.8996 
2.41425e-05      9.31215      115.851 
1.45941e-05      8.86799     -175.472 
-9.80110e-06      9.71403     -130.743 
2.40916e-05      6.46399     -11.2395 
-9.80359e-06      12.0429     -145.967 
1.45711e-05      11.1193     -23.1981 
9.81619e-06      4.19515     -85.0747 
-5.78487e-05      10.2764      78.7787 
9.83255e-06      11.9502      128.750 
2.42319e-05      8.55139      29.2597 
4.94182e-06      14.0768     -43.4448 
-9.78968e-06      9.37258      13.3264 
-4.94338e-06      9.80805     -41.1971 
2.42133e-05      9.79111      119.762 
-4.93627e-06      9.78604      19.5826 
1.92680e-05      13.2741      138.359 
-3.84725e-05      12.4023      138.859 
1.92864e-05      13.3243     -46.0930 
1.44126e-05      12.6304      47.8245 
-4.92410e-06      9.81964     -3.61894 
-2.88214e-05      10.7095     -126.036 
-4.93416e-06      10.7348      50.1385 
4.32839e-05      8.00490     -49.8671 
2.40867e-05      12.1704     -47.1313 
-1.44379e-05      9.79647     -120.281 
1.45427e-05      8.09916     -83.0501 
-2.41996e-05      11.2614     -27.1575 
-1.44700e-05      8.98773      149.954 
-4.80486e-05      10.3233     -11.3990 
3.83651e-05      10.3415     -152.344 
-2.40372e-05      10.3803      21.4738 
-2.88273e-05      10.1614     -5.19443 
3.36511e-05      11.6167     -55.3809 
-2.38684e-05      11.4165      36.3095 
-2.88005e-05      8.29006      141.859 
-2.38630e-05      9.86739      2.20528 
-2.60358e-05      2.99325     -139.606 
2.39563e-05      9.23060      47.6358 
4.87969e-06      11.0588      42.1398 
-3.34955e-05      11.3952      153.975 
-4.87227e-06      11.5135     -144.044 
4.86358e-06      6.33467     -128.464 
1.44651e-05      12.5779      133.259 
1.43553e-05      10.9483      153.995 
4.86627e-06      10.6494     -113.579 
4.85828e-06      5.85031      108.742 
4.85476e-06      10.5024      145.159 
4.29296e-05      10.0201     -176.337 
-3.82534e-05      9.40006     -6.47657 
2.39438e-05      10.2645     -110.413 
3.34320e-05      9.68402      174.549 
-4.85505e-06      7.57779     -39.1082 
-5.73646e-05      10.2456      94.0318 
9.68002e-06      13.1526     -134.508 
1.44306e-05      10.1976      154.189 
1.43276e-05      11.1945     -65.1768 
-2.38908e-05      10.7159     -19.5173 
-1.90698e-05      11.0178      139.195 
-3.33830e-05      7.33856      123.214 
1.91428e-05      10.7593      68.0613 
1.42993e-05      11.0733      42.0721 
2.86255e-05      11.1175      28.8243 
4.82845e-06      6.67069     -23.8748 
-1.90291e-05      8.96807      97.0459 
9.56961e-06      12.7405     -52.5888 
-9.56315e-06      12.3202      143.318 
-1.43764e-05      11.5036     -60.9839 
1.42959e-05      10.6413     -113.479 
1.90417e-05      10.7241      114.225 
1.89985e-05      8.07736     -83.1760 
-1.43175e-05      10.3003      37.4251 
-1.90628e-05      9.98378     -68.9863 
-4.81732e-06      11.6621     -31.5372 
-2.38076e-05      6.38007      90.5391 
2.84322e-05      13.0760     -138.410 
-1.90180e-05      11.6731     -32.5469 
1.43192e-05      12.0355     -42.1723 
-9.53061e-06      11.8351      47.6005 
-1.42421e-05      7.57490     -39.3238 
-2.37564e-05      5.71017      35.3066 
9.51818e-06      9.77214      35.2497 
1.90412e-05      13.1387     -134.567 
1.42455e-05      6.04212      111.553 
-3.31666e-05      12.2257      33.4560 
-2.84902e-05      13.1684     -141.041 
9.52408e-06      10.3642      127.155 
-9.53995e-06      11.4783     -131.327 
-2.84384e-05      12.5040      141.755 
-9.53227e-06      11.4174     -34.5820 
-4.78381e-06      4.66852      77.6280 
2.37176e-05      9.48752     -175.645 
-4.77426e-06      11.0246      137.132 
4.76797e-06      10.4099     -78.4738 
9.48002e-06      9.95960     -80.4064 
-9.51245e-06      8.88455      23.6205 
9.47432e-06      10.1689     -74.9537 
4.77292e-06      9.80099      77.2661 
-4.75764e-06      6.87664      169.443 
-1.42004e-05      11.6794     -31.4852 
-4.76225e-06      11.9222      34.5433 
-4.76453e-06      12.1131      39.1016 
1.41841e-05      9.43086      151.914 
-4.75430e-06      8.67993      89.6037 
1.41886e-05      9.52024      89.7606 
2.36470e-05      10.2422     -80.4480 
9.46205e-06      9.91550      103.532 
1.89253e-05      10.6178      64.2064 
-4.75581e-06      11.0292     -62.6923 
4.74585e-06      11.8692      125.188 
4.74805e-06      13.8049     -136.055 
9.44792e-06      11.2731     -43.9212 
-9.46141e-06      9.20835      136.146 
-9.46337e-06      9.61965     -81.7523 
1.41852e-05      12.7880      133.733 
4.75145e-06      14.0907     -43.5047 
4.74103e-06      7.14508     -170.168 
-9.44001e-06      6.89955      169.307 
4.74248e-06      9.53581      117.481 
-1.41775e-05      10.2652     -5.36469 
9.44108e-06      9.66975     -95.8168 
4.72940e-06      10.1730     -84.1321 
-4.73091e-06      7.24202      108.185 
2.68010e-05      11.9494     -34.5673 
-4.72886e-06      11.5566      122.562 
-4.73121e-06      8.09186      129.989 
-9.43320e-06      8.11556     -148.506 
-9.43635e-06      9.97653     -69.0949 
-1.41346e-05      9.99196      4.59176 
9.42681e-06      9.78107      119.659 
-9.43120e-06      11.2884     -27.1987 
-4.73902e-06      10.2379     -61.5340 
-1.41439e-05      10.3432     -11.3768 
9.44393e-06      11.2853     -147.521 
9.43334e-06      11.6056     -55.4602 
-4.73059e-06      11.2050     -28.5783 
-4.72599e-06      5.94221      88.4587 
-9.43113e-06      11.5134     -60.8957 
4.72571e-06      10.5200     -27.6361 
-4.72290e-06      10.0526     -92.8496 
-4.71826e-06      10.4758     -126.694 
-4.71404e-06      13.5354      137.755 
-4.71761e-06      5.53802      51.6021 
-4.70949e-06      6.30627      103.200 
-4.70988e-06      7.63176      93.1564 
4.70534e-06      11.8579      125.111 
-4.70503e-06      10.2925      78.9072 
9.41773e-06      13.1827     -136.107 
4.72598e-06      7.88660      42.2234 
4.70531e-06      12.6360     -138.337 
-9.42381e-06      10.2442      93.9188 
4.71980e-06      10.8244     -154.382 
-4.72208e-06      8.52607      72.2444 
4.69925e-06      10.3154      152.145 
-4.71321e-06      9.38693      13.1786 
-4.70991e-06      12.3242      54.7113 
-4.69823e-06      8.68010      89.4700 
-4.71019e-06      5.00187      79.6375 
4.69674e-06      6.98737     -134.073 
-4.71017e-06      10.2286     -61.6301 
4.69192e-06      8.13250     -77.5039 
4.70261e-06      8.48541     -45.0000 
-4.70417e-06      10.2963      78.8006 
-4.69851e-06      13.6572     -42.8046 
4.03516e-05      12.3597      34.3847 
3.42219e-05      11.4203      48.5481 
-3.42837e-05      11.7387     -141.921 
-2.79590e-05      9.73891      47.4950 
-2.22292e-05      9.94758      121.517 
1.11562e-05      9.72105      24.2997 
2.17028e-05      10.8736     -149.613 
-1.63659e-05      11.7135      140.819 
1.60704e-05      12.8691     -48.7801 
-1.07318e-05      9.56247     -161.716 
-1.07229e-05      11.9368     -134.320 
-1.06402e-05      12.2750     -45.0000 
-1.58184e-05      14.2420      134.488 
5.37441e-06      9.13570      169.403 
1.05522e-05      12.7447      129.460 
1.05096e-05      9.92063      110.043 
-5.31676e-06      8.10538     -148.623 
5.32960e-06      9.38412      110.326 
1.04943e-05      9.71134      24.4520 
5.29875e-06      13.0396      50.3515 
5.28304e-06      3.79254      101.250 
-5.29029e-06      13.3174     -49.3255 
5.26130e-06      7.73886      175.997 
-5.25449e-06      9.12243     -85.9765 
5.24076e-06      10.0248     -73.6623 
-5.24043e-06      11.4773      146.948 
-5.19873e-06      11.5457      122.477 
5.19154e-06      7.35728     -176.105 
5.15667e-06      11.3851      40.9404 
-5.15804e-06      6.28055     -68.9079 
-5.15285e-06      8.01876      111.509 
! Tentative model.
! Flux (Jy) Radius (mas)  Theta (deg)  Major FWHM (mas)  Axial ratio   Phi (deg) T \
! Freq (Hz)     SpecIndex
5.80027e-06      10.0305     -73.5524 
