! Center RA: 12 21 31.69052,  Dec: +28 13 58.50011 (2000.0)
! Established model.
! Flux (Jy) Radius (mas)  Theta (deg)  Major FWHM (mas)  Axial ratio   Phi (deg) T \
! Freq (Hz)     SpecIndex
  0.158443      0.00000      0.00000 
0.00767451    0.0202604      180.000 
0.00540547    0.0286526     -135.000 
0.00503811    0.0202604      90.0000 
0.00110319    0.0446338     -116.996 
 0.0104272    0.0562440     -135.000 
0.00378027    0.0397705      90.0000 
 0.0111807    0.0446338      63.0042 
 0.0569934    0.0720098     -123.524 
0.00957985    0.0600310      90.0000 
 0.0508956    0.0633577      71.3505 
0.00764831    0.0848966     -135.000 
 0.0145382    0.0896014     -116.350 
 0.0170019    0.0802914      90.0000 
0.00876085    0.0828082     -104.162 
0.00241333     0.247514      104.036 
0.00402872     0.271765      107.184 
0.000307412     0.266484      103.019 
0.00364187    0.0828082      104.162 
0.00116282     0.227911      105.272 
0.000264710     0.209153      106.680 
0.000129414    0.0633577      108.650 
0.00105162     0.253192      108.489 
0.000701463     0.126477      108.327 
0.000830696     0.107434      111.727 
0.00104830    0.0633577     -108.650 
0.00133653     0.291183      106.006 
0.00158903     0.178866      116.673 
0.000183008     0.197181      114.029 
0.00107316     0.286260      102.105 
0.000673988     0.152624      113.162 
8.47380e-05    0.0286526     -45.0000 
0.000643778    0.0446338     -63.0042 
7.84249e-05     0.134233      116.565 
0.000811626     0.161670      119.778 
0.000788718    0.0600310     -90.0000 
0.00170137     0.306099      101.310 
7.32184e-05    0.0446338     -26.9958 
0.00180736     0.310708      104.976 
0.000271361    0.0397705      0.00000 
0.000788019    0.0600310      0.00000 
0.00127302     0.329594      104.100 
0.000795381     0.188432      121.981 
5.13864e-05     0.392593      104.727 
5.10152e-05    0.0828082     -14.1622 
0.000149526     0.437032      105.945 
0.000612974    0.0802914      0.00000 
0.000458075     0.205897      118.994 
0.000459977     0.455823      105.272 
0.000485332     0.101837     -11.4755 
0.000329123     0.480914      106.965 
0.000541762     0.101837     -101.476 
0.000822727     0.121759     -9.57842 
0.000232771     0.475398      104.628 
0.000361529     0.815792      107.118 
0.00106342     0.216445      123.690 
0.000725459     0.500328      106.288 
0.000186262     0.948461      108.449 
0.00168166     0.107434     -111.727 
0.000326541     0.967701      108.070 
0.000100548     0.791300      106.132 
0.000250276     0.797167      107.531 
3.19381e-05     0.145849     -15.8239 
0.000502088     0.164706     -13.9729 
0.000212948     0.986983      107.705 
0.000119649     0.771858      106.550 
5.91378e-05     0.495028      104.036 
0.000170161      1.02868      103.499 
0.000163771      1.04767      103.250 
0.000605077     0.708758      106.420 
0.000293596     0.942245      107.281 
6.59784e-05     0.664933      105.714 
3.25227e-05     0.601667      105.406 
3.21527e-05     0.955909      105.760 
9.43320e-05     0.577108      104.072 
0.000453077     0.728215      105.970 
6.19875e-05     0.961610      106.922 
0.000207175     0.558204      104.559 
6.04605e-05     0.989328      104.047 
0.000353412     0.100252     -126.784 
0.000380234     0.753177      106.973 
2.94163e-05      1.00899      103.768 
8.46452e-05    0.0633577      18.6495 
0.000649376     0.533698      103.001 
8.14292e-05     0.929974      108.830 
0.000179099     0.954815      109.560 
0.000317689    0.0998015      0.00000 
0.000389105      1.07195      104.017 
4.76806e-05     0.936453      109.960 
0.000343155     0.961787      110.697 
0.000748005     0.513977      103.509 
0.000767033     0.747714      105.543 
0.000182897     0.141777     -8.21587 
0.000277400      1.09662      104.787 
5.71545e-05     0.969133      111.818 
0.000303889     0.995250      112.427 
0.000373720     0.325253      100.636 
0.000235296     0.184432     -12.4530 
0.000253901      1.11549      104.532 
0.000207244     0.228306      127.925 
0.000249196      1.02987      114.081 
0.000201262     0.209153     -16.6796 
2.68537e-05     0.493986      111.381 
0.000262504      1.14028      105.262 
6.15133e-05     0.501727      113.536 
0.000166370      4.63046      109.689 
0.000147562     0.199903      126.913 
6.08500e-05      1.03798      115.064 
0.000395869     0.227911     -15.2717 
5.84814e-05     0.871317      99.2676 
0.000241870      2.27098      107.956 
1.17936e-05      2.63478      105.410 
4.57674e-05      1.06428      115.608 
0.000506827      2.64023      105.834 
5.45806e-05     0.536933      116.565 
0.000151324     0.868284      97.9480 
9.46704e-05      1.07320      116.583 
0.000397783      4.63733      109.924 
0.000234569      1.16504      105.925 
9.90537e-05     0.322129      97.0919 
5.89194e-05     0.240790      131.589 
3.00804e-05     0.545937      118.397 
1.01298e-05     0.722903      104.426 
0.000451933      1.04410      69.8199 
0.000131519      1.03728      70.8704 
1.95734e-05      1.10008      117.019 
7.21341e-05     0.529508      100.864 
1.90698e-05     0.582967      120.989 
9.89788e-05      1.10943      117.952 
0.000114865     0.742542      104.036 
0.000154784     0.212689      131.281 
4.47183e-05     0.593248      122.605 
0.000172424     0.891319      99.0579 
0.000272304      1.18945      106.606 
0.000157629     0.300838      93.8616 
0.000159979      4.28904      109.617 
5.22290e-05      2.27730      108.441 
7.13266e-05     0.254690      135.000 
0.000237902     0.247514     -14.0362 
3.41132e-05      3.96034      113.199 
0.000394857     0.888355      97.7673 
0.000105770      3.95240      112.929 
2.36013e-05     0.643885      126.135 
6.37626e-05      1.14625      119.233 
0.000164374      2.25171      108.115 
8.19497e-06     0.696607      129.142 
2.40791e-05     0.506166      99.1272 
2.40099e-05      3.56215      130.215 
8.06831e-06     0.750414      131.757 
2.29596e-05      1.21473      107.248 
0.000140747      1.37920      106.857 
3.09485e-05     0.792690      132.967 
0.000307161      3.52105      129.934 
7.24360e-05     0.503350      96.8496 
0.000137003      3.92616      112.782 
0.000216537      3.49953      110.405 
0.000102164     0.128090     -141.183 
7.02755e-05      1.18335      120.484 
1.47215e-05     0.834763      134.017 
0.000139420     0.271765     -17.1841 
0.000284875      1.83652      128.364 
0.000367270      4.59465      119.466 
7.20527e-06     0.876557      135.000 
2.80221e-05     0.269397      138.048 
7.11622e-06     0.919648      135.893 
5.38025e-05     0.990521      136.658 
3.42117e-05      3.37532      114.132 
0.000360833      2.21320      83.7714 
5.69726e-05     0.604406      124.223 
0.000201484      4.31494      109.781 
0.000159719     0.910591      98.8646 
7.02802e-05      4.64401      110.151 
7.57432e-05      3.40950      114.608 
1.97406e-05     0.342244      173.327 
0.000155663     0.300155      90.0000 
0.000124876      1.99439      116.816 
0.000142808      3.61821      109.040 
6.59739e-05     0.501338      94.5500 
0.000109773      1.39860      106.617 
6.15649e-05      1.22122      121.610 
4.83114e-05     0.161670     -60.2221 
0.000200060      3.99637      120.026 
4.79556e-05     0.384412      171.016 
0.000255295      1.01862      136.582 
6.27716e-06     0.284207      140.679 
2.92300e-05     0.656037      127.565 
8.05881e-05     0.226037     -45.0000 
7.78779e-05      2.25809      108.604 
7.12605e-05      4.65103      110.385 
0.000112195      3.41799      114.917 
1.70755e-05      1.01639      126.202 
4.91209e-05      1.25953      122.668 
1.11481e-05     0.300155      143.130 
8.03634e-05     0.427819      169.183 
1.03733e-05      1.02804      127.079 
1.09257e-05     0.988088      125.947 
6.96589e-05     0.616029      125.781 
0.000135716      1.00012      126.887 
2.58166e-05     0.500168      92.3215 
1.04465e-05     0.120062     -90.0000 
0.000150089      4.02490      115.925 
3.44480e-05      1.79875      98.2991 
0.000166839      1.95854      116.045 
1.02572e-05     0.315980      145.253 
0.000192145      1.84386      93.7334 
5.15860e-06      1.43666      98.8030 
0.000183460      3.58598      108.534 
6.18583e-05      1.30897      124.419 
5.08575e-06      3.59247      108.840 
0.000107034     0.266484     -13.0188 
4.77652e-05      2.31895      105.003 
9.24672e-05     0.777872      107.981 
6.51400e-05      4.65813      110.619 
2.32458e-05      1.32223      110.358 
1.89682e-05      1.41448      98.1430 
4.91848e-05      1.40453      107.409 
1.85063e-05     0.332828      147.241 
1.88625e-05     0.480248      90.0000 
0.000148813      3.45323      115.373 
4.79113e-06      3.17948      111.400 
1.86322e-05      3.09734      111.593 
0.000137498      2.64562      106.240 
3.54963e-05      3.94484      112.668 
1.80585e-05      3.07852      111.731 
0.000133768     0.668581      128.941 
6.18428e-05      1.79605      127.770 
7.37357e-05      1.80179      98.9367 
9.63489e-05      1.34833      110.866 
4.48026e-06      1.06150      137.263 
7.13987e-05     0.480675      87.5843 
6.78258e-05      2.31379      104.518 
6.42751e-05      3.47350      110.208 
5.33939e-05      4.32158      110.024 
0.000220841      2.77329      101.234 
2.15169e-05     0.470689      167.759 
2.09705e-05      1.38919      96.6068 
6.74242e-05      3.85759      128.468 
5.25239e-05      3.07135      111.393 
0.000155656     0.280627      85.8598 
0.000173687      1.34833      125.326 
4.33570e-06      3.09022      111.256 
9.13793e-05      3.50638      110.704 
6.63742e-05      4.66503      110.843 
5.19805e-05     0.350038      149.036 
4.20730e-06      3.12732      110.992 
6.44268e-05     0.240790     -41.5891 
1.61872e-05      3.96285      112.559 
3.79800e-05      2.23890      108.769 
2.76761e-05     0.490508      168.260 
7.97496e-06      3.14624      110.860 
4.78036e-05      3.98157      112.447 
4.60689e-05      1.36336      94.1980 
0.000136288      4.02406      120.132 
2.20328e-05      1.38521      107.660 
4.22825e-05     0.291183     -16.0062 
0.000219283      1.80253      109.453 
2.48006e-05      3.12012      110.645 
0.000139105     0.553458      167.471 
0.000121220      1.01195      127.771 
2.80636e-05      1.84916      128.856 
0.000151591      2.90208      113.562 
3.37229e-05      3.06401      111.041 
0.000127926      4.58472      119.246 
9.56183e-05      2.33853      104.875 
5.73409e-05      4.67228      111.075 
4.75426e-05     0.481892      85.2660 
4.71700e-05      2.24525      109.240 
3.86670e-05      4.51699      112.927 
2.28890e-05      4.00030      112.336 
0.000122466      3.46196      115.676 
2.20089e-05      2.10938      111.692 
5.03518e-05      3.87023      128.703 
7.78533e-05     0.310708     -14.9760 
3.28038e-05      3.97388      112.177 
7.33891e-05      3.09474      110.421 
6.16296e-05      1.34390      94.2588 
6.16262e-05      1.65851      123.690 
7.52967e-05      3.35684      118.857 
2.10217e-05      4.52492      113.164 
5.80131e-06      3.88522      112.077 
2.65276e-05      3.07576      110.553 
8.61613e-06      1.03975      67.3770 
3.57591e-05      2.12822      111.490 
5.30394e-05     0.284207     -39.3213 
7.98104e-05      4.54287      113.067 
4.51452e-05      2.62075      105.954 
8.45633e-06      1.84529      94.3612 
4.87412e-05      4.28228      109.362 
4.61065e-05      4.67933      111.298 
8.38031e-06     0.483985      82.8750 
5.70716e-05      2.25201      109.727 
2.30629e-05     0.722868      131.634 
-0.000144888      1.93986      89.4016 
5.18389e-05      3.99265      112.067 
2.76532e-06      1.82503      99.4662 
2.58242e-05     0.470689      77.7585 
4.03044e-05     0.152624     -156.838 
2.85749e-05      3.87765      111.799 
1.28853e-05      1.37346      106.049 
2.12784e-05      1.82834      100.069 
1.63124e-05      1.03212      68.4152 
1.62639e-05     0.366905      150.604 
2.06800e-05      3.46713      129.388 
9.47981e-06     0.475398      75.3715 
1.97696e-05      1.36819      105.263 
-8.43480e-05      3.61564      105.727 
2.35242e-06      3.45431      129.128 
3.25226e-05     0.329594     -14.0995 
1.76881e-05     0.467874      70.0247 
-5.35592e-05      4.35266      107.104 
2.14451e-05      4.68673      111.529 
2.52117e-05      1.32370      94.3240 
1.67661e-05      2.36783      105.684 
1.04149e-05      2.62618      106.364 
1.46853e-05      2.25867      110.193 
1.86922e-05      2.89404      113.195 
1.44941e-05      3.06896      110.212 
1.03000e-05     0.300155     -36.8699 
1.23910e-05      4.27585      109.115 
2.10808e-06     0.480914      73.0353 
1.96023e-05     0.486965      70.8391 
8.14786e-06      3.55427      108.029 
6.11994e-06      4.01392      119.882 
8.08794e-06      1.86706      94.9109 
-1.01210e-05      1.52356      93.7559 
4.00722e-06      2.28471      110.494 
2.00625e-06      1.02448      128.666 
1.99430e-06     0.394577      149.485 
0.000263964      6.76122      107.737 
0.000139097      6.70168      110.434 
0.000239522      5.86194      121.468 
0.000107855      5.36572      119.720 
5.49943e-05      5.39299      119.793 
1.43289e-05      6.75796      110.256 
3.35598e-05      6.67589      110.337 
3.74008e-05      6.77698      110.197 
0.000369769      7.60418      109.676 
6.89440e-05      5.37542      119.901 
7.59392e-05      6.79529      110.140 
4.92223e-05      6.72455      107.301 
5.15525e-05      7.60339      110.962 
6.69375e-05      1.32053      91.7258 
-7.65605e-05      6.82949      106.153 
5.08888e-05      6.65057      110.232 
4.15731e-05      5.56159      119.512 
2.92373e-05      5.34813      119.828 
2.44625e-05      6.71877      107.142 
2.44008e-05      4.40172      112.714 
1.90988e-05      1.20887      106.331 
9.43019e-06      6.67612      106.535 
9.42604e-06     0.247514      75.9638 
9.39549e-06      5.55201      119.337 
9.39468e-06     0.709570      130.411 
0.000491212      12.4209     -143.775 
-0.000517660      10.7774      71.4969 
0.000412396      4.01388      97.4439 
-0.000262976      8.84355     -162.632 
0.000225762      12.0286     -39.0600 
0.000231637      9.28606      141.822 
0.000314084      5.80239     -55.8208 
0.000133388      7.01478     -35.3681 
-0.000320228      11.0115      123.143 
-0.000154704      10.8159     -114.006 
-0.000116823      4.09088      94.2077 
-0.000259478      5.67066      73.6130 
-0.000169413      12.1129      48.4154 
-0.000260633      9.97434     -123.054 
0.000207788      9.36706      17.7760 
-0.000121835      4.08944      93.9246 
-0.000229131      5.07633     -23.9393 
0.000118825      11.3866      116.160 
4.91702e-05      9.38635      17.7382 
-0.000202715      8.43816     -23.4669 
0.000130933      9.85782      102.061 
0.000155869      11.9226     -59.0053 
-0.000111588      3.70220      171.303 
-0.000133808      10.2087      2.35912 
0.000175806      10.7859     -142.002 
-9.07488e-05      9.69988     -60.4761 
-8.95101e-05      9.66481      163.778 
-0.000151867      2.90306      80.0872 
8.67289e-05      11.3245      48.7934 
0.000171221      6.31050      84.3633 
2.38181e-05      10.7377     -111.068 
0.000171420      10.3076      173.424 
-0.000128372      4.77069     -110.111 
2.34543e-05      6.98653     -35.3288 
-6.36035e-05      9.70988     -60.3721 
-0.000106167      12.2593      34.0266 
-0.000190347      13.0136      47.9261 
8.62850e-05      9.21273     -9.74926 
-8.44588e-05      8.86218     -162.670 
0.000125859      10.7494     -110.929 
-0.000105947      10.8173     -113.768 
-8.72298e-05      10.2922     -118.559 
4.39265e-05      6.97001     -35.4251 
-0.000103941      9.81168     -32.0054 
-2.22910e-05      5.10308     -24.0549 
-8.33989e-05      9.85450     -94.7741 
8.31594e-05      7.82554     -87.8018 
-0.000102893      7.70588      164.340 
-2.17272e-05      3.68292      171.257 
-6.17882e-05      6.63840     -12.5281 
8.25023e-05      9.33044      141.878 
-4.17330e-05      10.8715      35.4168 
8.12910e-05      11.1418      41.0705 
4.03489e-05      12.6362     -37.0883 
6.12596e-05      6.58688      35.2326 
6.09807e-05      6.13484     -105.894 
2.09736e-05      9.23595     -48.3363 
-4.09524e-05      9.87727     -147.822 
-2.08211e-05      7.88137      131.089 
6.00830e-05      11.3595      116.113 
-7.94277e-05      9.46196     -161.260 
-3.97787e-05      10.1951     -158.719 
-7.93852e-05      10.2838     -118.708 
3.98584e-05      6.94237     -35.3822 
2.04127e-05      7.70586      34.6387 
2.03944e-05      8.44818     -140.091 
-3.98487e-05      7.11718      145.998 
5.92015e-05      9.22300     -48.4269 
-5.92177e-05      10.1763     -60.3101 
3.99640e-05      5.55666     -61.8638 
-3.95786e-05      14.1183     -136.492 
3.92843e-05      7.72717      34.3475 
-3.89733e-05      13.7124     -131.690 
-1.97881e-05      4.45452     -152.740 
-1.97541e-05      8.31581     -172.257 
-3.84643e-05      9.13019     -61.1873 
-1.93560e-05      10.4683     -143.547 
-1.93562e-05      7.86807      130.978 
-1.93151e-05      9.88367     -147.984 
1.92672e-05      6.60558     -101.175 
1.91132e-05      10.1656     -57.7799 
-1.90957e-05      9.85615     -94.8872 
-1.90769e-05      10.4261     -133.521 
-1.90469e-05      12.1000      48.4845 
0.000194194      9.49776      65.7576 
0.000219103      8.19409     -104.852 
-0.000308503      6.92220      148.471 
0.000150621      10.8184      59.0710 
-0.000173915      4.64302     -76.7992 
-5.79472e-05      1.10943      152.048 
-0.000345216      13.9536     -132.908 
-0.000116913      10.2167      104.744 
0.000105717      10.6209      107.308 
0.000125365      11.3431     -115.480 
-0.000175458      10.9561     -65.6327 
9.47645e-05      9.61816     -43.9885 
8.30606e-05      9.38527     -42.4953 
0.000128193      10.0798      21.7792 
-9.24591e-05      1.09157      151.550 
6.47707e-05      9.19119     -48.0875 
1.75933e-05      11.0422     -118.329 
0.000106123      8.59552      63.0189 
0.000121101      12.7757     -126.726 
0.000202946      10.6016      107.341 
0.000206777      11.0347     -118.470 
0.000107171      6.09092     -158.825 
9.24726e-05      6.48639      163.521 
-5.92004e-05      11.0594     -29.3461 
1.64566e-05      11.3518     -115.572 
-9.00390e-05      10.1578     -66.5635 
-7.20927e-05      9.79597     -115.519 
8.45448e-05      4.27115      49.7459 
-4.36234e-05      3.03087      163.117 
-7.82711e-05      11.0318     -29.3060 
2.98235e-05      7.50178      148.852 
-7.57232e-05      11.5754     -29.0441 
7.94254e-05      8.12488     -79.9365 
-0.000144681      10.9281      56.5707 
0.000213457      9.21981     -48.0780 
8.29733e-05      6.79037      176.795 
0.000154278      11.3004     -49.0900 
2.90493e-05      11.1320      136.092 
2.88832e-05      8.42779      149.478 
4.16253e-05      2.07501      17.3800 
-7.33100e-05      11.6029     -29.0830 
-5.28498e-05      8.55218     -154.514 
6.81514e-05      12.0632      38.2023 
2.84206e-05      10.3611     -139.856 
-2.79252e-05      9.96918      76.6614 
6.38675e-05      8.44156      101.896 
1.43583e-05      6.28791      160.298 
6.50782e-05      9.37034     -42.5789 
4.03298e-05      7.44059      66.0510 
8.51523e-05      13.2158     -41.7478 
3.99126e-05      6.85729     -160.403 
2.74919e-05      6.07458     -106.646 
-4.93451e-05      3.61287     -101.501 
-0.000152079      8.85140      105.731 
-0.000161701      13.5131      40.8591 
-1.39698e-05      2.92664     -158.349 
3.86349e-05      8.63628     -77.1531 
-0.000104890      10.2116      104.634 
-9.65480e-05      8.84708      117.319 
-0.000138772      11.5726      128.474 
7.99416e-05      7.47397      148.905 
2.70591e-05      8.19202      96.4480 
1.37063e-05      6.01770      94.3839 
-2.62962e-05      4.67122     -76.3790 
0.000134357      12.8878     -51.7408 
5.85083e-05      6.25865     -105.194 
-8.38417e-05      9.72985     -134.666 
1.35340e-05      9.50349     -45.5118 
1.35282e-05      6.36106      90.8990 
5.07253e-05      6.46697      163.470 
7.15161e-05      11.1747      136.159 
0.000120714      7.86893     -59.7868 
1.32170e-05      8.44525      149.548 
0.000154432      10.1093      21.5890 
8.08228e-05      6.03948      94.5609 
2.54293e-05      8.08978      39.0781 
2.52933e-05      8.49975      45.0966 
-5.96685e-05      13.2237      39.6632 
1.30691e-05      6.30699      160.360 
-1.30591e-05      6.23039     -17.5599 
5.60255e-05      10.3457     -139.784 
2.44859e-05      7.29953     -115.651 
1.29049e-05      8.17954     -105.020 
2.50900e-05      8.44561      102.026 
3.71321e-05      8.19432      96.5888 
3.54086e-05      6.08824     -106.409 
-5.64171e-05      9.96453      76.7748 
-0.000136488      10.1659     -66.4588 
-6.77183e-05      3.00563      163.375 
-1.27284e-05      4.04721     -93.4014 
1.26973e-05      12.5848     -39.0029 
1.26604e-05      5.51015      14.2860 
-0.000158344      11.6206     -29.0345 
2.37813e-05      6.10982     -158.894 
9.33165e-05      8.46830      108.308 
4.69714e-05      8.04315      10.0256 
-0.000113437      9.80439     -115.622 
-3.46488e-05      11.3891     -30.0314 
-1.24321e-05      2.93768     -158.843 
-9.57276e-05      4.48192      5.63041 
3.52085e-05      6.78931      176.959 
9.77315e-05      12.0599      38.3324 
-9.78472e-05      12.8308      141.201 
-8.84215e-05      13.1401      42.1623 
5.69763e-05      12.7640     -126.656 
-5.99301e-05      9.18078      89.3771 
-2.40801e-05      4.02820     -93.6955 
0.000136095      12.4985      131.368 
-1.23059e-05      9.96188     -148.127 
4.67814e-05      9.68334      161.076 
1.22635e-05      9.41554     -165.612 
5.43855e-05      11.0771      112.954 
5.56037e-05      9.00928      80.2851 
3.40136e-05      8.45516      149.434 
-3.20824e-05      11.8562     -55.2367 
1.21328e-05      8.21370      96.5731 
7.63774e-05      11.9589      32.0157 
4.49452e-05      11.3342     -115.615 
-4.29301e-05      9.13461     -96.2867 
-1.20611e-05      3.71765      5.55985 
-3.63439e-05      6.97966      173.915 
-4.51536e-05      10.7750      40.9337 
5.63252e-05      8.02173     -91.1417 
-4.40340e-05      10.2057     -60.0210 
2.26923e-05      6.35126      160.308 
3.16674e-05      9.30458     -138.050 
-1.18305e-05      13.5487      45.3590 
-2.29000e-05      2.93043     -159.212 
-3.38611e-05      12.8989      135.879 
-2.26702e-05      11.5442      128.457 
2.17038e-05      8.07406      39.1688 
-6.35369e-05      7.94807     -167.503 
-2.19835e-05      9.95565     -147.973 
-7.42517e-05      10.4541     -133.683 
7.41975e-05      8.43020      130.191 
1.14470e-05      11.6367     -41.1672 
1.14206e-05      6.44251      163.594 
-2.20805e-05      7.77183     -137.606 
9.79314e-05      9.00504     -139.234 
1.13413e-05      8.21596      96.7083 
-1.13335e-05      9.18059      89.4989 
1.12986e-05      6.91703     -166.282 
-3.05907e-05      5.92902      102.863 
1.12400e-05      2.05568      17.5487 
-6.06839e-05      13.5345      45.4200 
-5.74727e-05      4.04842     -93.6770 
-2.16221e-05      9.58866     -40.6013 
1.11657e-05      6.84504     -160.186 
4.84461e-05      7.85913     -59.9097 
1.10797e-05      4.28427      49.5391 
3.20423e-05      6.42308      163.542 
0.000139161      12.0416     -49.3770 
2.09837e-05      8.64064     -77.0270 
-1.09381e-05      10.4260      24.6006 
7.66912e-05      6.95165     -166.523 
3.06081e-05      9.94416     -69.2689 
4.11570e-05      5.58374     -61.7853 
1.08694e-05      10.5322      49.9305 
-3.07451e-05      11.3186      30.8243 
-0.000192976      10.9642     -65.5398 
1.07549e-05      12.5696     -39.0589 
-2.08061e-05      2.94938     -159.352 
-7.80897e-05      9.27477     -103.470 
2.00513e-05      7.29110     -115.513 
-6.03564e-05      9.18163      90.9974 
-2.94728e-05      8.88195      105.947 
5.82694e-05      9.71299      4.72394 
-1.06810e-05      8.38504     -97.1250 
-2.03322e-05      3.02057     0.754410 
9.37535e-05      8.02320      10.0508 
-3.81508e-05      13.5668      43.5074 
-1.06477e-05      8.87190     -13.6942 
-1.05752e-05      9.79492     -115.780 
7.98309e-05      9.66418      161.037 
1.05190e-05      2.04263      18.2619 
-4.87124e-05      12.8849      135.819 
1.04394e-05      10.8047     -67.4707 
1.04203e-05      8.43741      101.762 
-0.000255558      10.3474     -170.318 
-4.71522e-05      7.75743     -137.509 
-3.00653e-05      8.87628      176.510 
-2.95921e-05      10.1338      58.0670 
1.03550e-05      8.19658      96.7242 
-4.74102e-05      11.0142     -29.3575 
-0.000185109      9.10141     -61.5185 
-1.02768e-05      1.07446      151.054 
3.81384e-05      8.00190     -91.2896 
0.000360428      10.5958      107.240 
5.33455e-05      12.8126      45.2539 
1.96423e-05      6.82669     -160.131 
8.76648e-05      5.57454     -61.9620 
-1.01968e-05      6.82251      59.5258 
-1.01696e-05      1.71273     -112.678 
1.01421e-05      7.57158     -164.055 
-1.01514e-05      10.4312     -106.143 
0.000108197      13.8329     -47.7527 
-1.99088e-05      9.36583      159.633 
4.64197e-05      6.78826      177.130 
0.000180976      9.53015      16.4573 
3.70624e-05      3.57245     -34.0405 
5.33761e-05      11.1601      136.087 
-1.94266e-05      8.38255     -96.9876 
2.91916e-05      8.43330      101.627 
-1.00521e-05      6.63450     -3.80028 
1.96712e-05      7.47222     -145.801 
-1.00074e-05      8.88270      117.489 
9.93381e-06      6.33289      160.249 
2.86064e-05      13.2007     -41.8064 
7.86508e-05      11.2919     -155.070 
1.89558e-05      9.43444     -165.641 
3.75957e-05      6.40365      163.491 
-0.000114888      8.87337      117.373 
1.87255e-05      7.54706     -100.536 
6.18853e-05      10.8580      50.6791 
1.93337e-05      7.58481     -164.242 
1.90342e-05      11.3332     -115.841 
0.000100803      13.7610      134.353 
5.28074e-05      10.9849      60.9154 
-9.72622e-06      2.94230     -159.721 
0.000122790      9.12394      79.1346 
-8.00570e-05      10.4367     -106.246 
6.15645e-05      9.30493      109.332 
1.90070e-05      8.34609     -46.3588 
-1.70645e-05      10.1273      57.9091 
-5.05483e-05      1.70175     -113.547 
5.62498e-05      8.21835      96.8486 
-1.84763e-05      6.27644      41.5152 
-1.72485e-05      9.60348     -40.5255 
1.89965e-05      8.02136     -91.0024 
8.46392e-05      11.9761      31.9643 
-9.59978e-06      13.9526     -133.026 
4.98071e-05      9.02925      80.3067 
-9.60574e-06      11.3715     -30.0825 
3.43696e-05      8.84031     -90.0000 
3.52384e-05      8.44280      130.292 
-2.77599e-05      13.1415      42.0376 
9.51616e-06      6.06051      94.7301 
-3.55713e-05      2.96174      163.530 
-9.50170e-06      3.61681     -101.804 
8.59283e-05      9.06097     0.759217 
1.85216e-05      7.46690     -145.585 
9.43871e-06      11.4738      57.5291 
-1.80770e-05      2.96131     -159.857 
4.48019e-05      8.81195      77.4135 
5.81620e-05      11.3473      46.7149 
9.31567e-06      10.7785     -67.5253 
2.60280e-05      7.02910     -39.8071 
-2.65799e-05      10.8115     -55.7827 
-9.26249e-06      9.14376      57.5959 
1.78137e-05      6.23982     -105.241 
9.20677e-06      8.14483     -79.9614 
-9.21278e-06      2.66199      2.14859 
6.79239e-05      10.8852      150.137 
-8.40268e-05      12.8466      141.258 
6.19066e-05      10.1281      21.5468 
-3.47402e-05      9.13242     -96.1603 
1.79392e-05      7.41385      156.131 
9.15582e-06      12.7519     -126.583 
-2.56165e-05      9.39118      159.558 
-3.36585e-05      8.89650      176.518 
7.72769e-05      11.8831      133.636 
9.60278e-05      7.56604     -164.202 
4.14835e-05      5.43821      75.3003 
9.08895e-06      8.77441      107.237 
-1.80327e-05      11.6197     -141.711 
-3.41782e-05      10.1231      58.1643 
-1.64353e-05      11.3445     -30.0434 
-7.36524e-05      11.1350      23.3862 
0.000107303      11.7722     -143.635 
-0.000153595      8.29138     -108.128 
1.72757e-05      6.75319     -130.435 
-8.99742e-06      9.94926     -147.812 
2.55506e-05      8.42939      101.497 
-1.71597e-05      3.00031     0.759504 
3.44872e-05      13.2293     -41.8133 
3.21428e-05      10.3481     -139.942 
-1.76299e-05      12.6041      126.742 
-4.14132e-05      8.73074     -33.9810 
-8.93099e-06      10.1954     -148.149 
1.73343e-05      8.68847      85.3781 
8.86721e-06      11.3247     -115.752 
-8.87595e-06      8.79235     -56.6002 
-4.17567e-05      7.96785     -167.534 
-4.13762e-05      9.55177     -118.927 
-8.85902e-06      10.2429     -59.8792 
2.56061e-05      11.4846      57.4438 
0.000122821      12.8599     -51.7579 
5.75675e-05      7.48362     -145.673 
4.08728e-05      8.37474     -46.3542 
1.63636e-05      12.9227     -40.5421 
-2.50039e-05      11.2213     -129.650 
1.73161e-05      9.95434      95.9973 
-2.54445e-05      8.26611     -129.696 
-5.74733e-05      13.1581      41.8585 
-3.20460e-05      10.2067      104.528 
-0.000321007      11.6350     -141.770 
-8.79434e-06      13.2393      39.6072 
8.74575e-06      9.48983     -45.5959 
8.75105e-06      11.0585      112.995 
1.67183e-05      12.5200     -41.8928 
0.000133607      8.00147     -91.1446 
-7.75189e-05      9.81317     -115.728 
0.000109748      12.7753      49.9536 
-3.28665e-05      8.20178     -112.814 
2.38410e-05      6.37942      163.609 
6.19960e-05      9.65836      28.8471 
-3.27463e-05      13.5203      45.4812 
8.58426e-06      7.61592      6.93806 
-1.69945e-05      10.5636      19.4646 
0.000138586      12.9661     -40.4959 
8.54863e-06      12.7399     -126.509 
3.90473e-05      9.24172     -140.003 
3.20278e-05      7.44616      148.958 
-8.50213e-06      11.2182     -129.792 
6.14157e-05      7.76559      37.9906 
7.20012e-05      8.75642     -26.7429 
-5.32929e-05      9.28978     -103.319 
2.42298e-05      13.0501      137.358 
-0.000166389      12.5641      126.652 
-4.68474e-05      9.94295     -147.651 
6.51457e-05      11.3238     -115.978 
8.43590e-06      7.91124     -86.9552 
7.43677e-05      10.6919     -17.0806 
6.16890e-05      8.74457      77.5869 
-5.45548e-05      9.95231     -94.6101 
9.65127e-05      8.44343      108.219 
-8.43441e-06      8.85294     -13.7241 
-4.31348e-05      12.8568      135.818 
-2.41068e-05      13.9807      46.9727 
-8.36417e-06      7.86784      80.4919 
-8.35332e-06      9.72972     -134.834 
-4.19524e-05      8.90608      106.033 
8.35197e-06      7.39602      156.069 
5.97028e-05      9.42059     -165.492 
-8.34731e-06      2.64259      2.60404 
-2.23983e-05      9.48634      38.9252 
2.47675e-05      10.1391      21.4038 
5.02821e-05      10.4852      125.842 
8.28540e-06      9.96241     -69.3086 
-8.27065e-06      8.78121     -56.7105 
5.20173e-05      12.5266      131.374 
8.25002e-06      11.6544      44.1652 
2.33671e-05      9.95647      96.1132 
-8.22681e-06      9.96008      76.8841 
-3.10554e-05      2.97301     -160.339 
-3.80010e-05      13.5815      43.4486 
0.000102231      13.8460     -47.6929 
7.21053e-05      10.5082     -167.022 
2.35738e-05      9.69449      4.85314 
-0.000196682      10.5827      19.4281 
-8.18392e-06      6.93282      148.328 
8.81621e-05      8.28794     -122.886 
-0.000131028      11.0250      30.2876 
-6.88469e-05      12.2065     -145.006 
2.33790e-05      8.07883      9.83503 
3.90473e-05      13.2142     -41.8719 
-2.99088e-05      5.25785     -75.9082 
-2.94555e-05      7.48029      89.3850 
-8.12441e-06      6.36772      123.990 
-8.12078e-06      9.80375     -115.886 
-4.47902e-05      7.87121      80.3464 
1.58792e-05      7.63529      6.92037 
-0.000105863      11.9813      146.231 
-6.46363e-05      10.8005     -55.8683 
8.07401e-06      6.22545     -105.463 
3.08962e-05      13.3698     -40.9354 
5.00273e-05      10.8481      50.9125 
-8.02050e-06      5.93356      103.054 
8.03439e-06      8.00325      10.0761 
-9.98474e-05      13.9398     -132.847 
0.000183188      10.1580      21.3621 
-8.02354e-05      8.87641      105.821 
2.29661e-05      11.2718     -49.1004 
-2.23477e-05      9.16105      90.8776 
-5.10519e-05      11.3817      132.438 
1.53859e-05      8.98971     -139.150 
-1.51096e-05      9.02857      163.128 
1.53170e-05      11.2457      152.111 
2.28027e-05      6.35998      163.558 
-2.25994e-05      9.47059      39.0023 
1.56362e-05      11.4952      57.3619 
7.89280e-06      8.43440      31.1246 
-2.88957e-05      13.7677     -43.1757 
7.87773e-06      8.78778      77.5136 
1.55282e-05      10.6483      110.101 
-1.52656e-05      7.56968      87.1248 
7.86486e-06      8.09880      9.81055 
7.83748e-06      8.37916      148.965 
1.51765e-05      8.18977      131.438 
5.73610e-05      3.71413      51.3402 
5.78368e-05      11.9344     -137.650 
1.54222e-05      10.5016      125.778 
-7.77884e-06      10.2702     -59.8418 
-7.75172e-06      6.22881      125.982 
1.47955e-05      7.70653     -131.633 
1.52385e-05      6.18450     -30.2985 
4.26438e-05      11.8749      58.6382 
-0.000116340      11.2188      64.6673 
-7.72522e-06      6.91558      148.240 
2.20514e-05      7.96582      56.4686 
2.08496e-05      12.6927     -126.221 
-1.49809e-05      11.2949      31.0160 
7.71386e-06      6.11270     -106.540 
7.71111e-06      7.91019     -87.1018 
-8.19388e-05      11.3536      132.429 
2.12813e-05      6.54366     -48.2213 
-2.20601e-05      10.2320      153.285 
-6.52766e-05      12.8624      141.314 
-9.47668e-05      10.4915      156.759 
-6.53131e-05      7.58821      87.2793 
7.62075e-06      10.2086     -77.3255 
2.84431e-05      8.41706      31.1959 
-4.24984e-05      8.18311     -112.869 
-3.92373e-05      11.2084     -129.570 
-1.41503e-05      9.32890     -24.0374 
-7.56930e-06      9.95180     -109.853 
-1.48795e-05      8.26351     -129.894 
2.93497e-05      10.0519      140.896 
9.26329e-05      13.7897      134.354 
7.53449e-06      8.66993      85.2339 
5.82374e-05      11.3005     -154.977 
7.49011e-06      11.5122      57.4162 
-7.50394e-06      6.83512      147.427 
0.000115899      12.5321     -37.2157 
4.82778e-05      5.45200      75.5583 
6.69577e-05      10.8406      150.125 
-0.000189538      12.4363      37.0912 
6.44525e-05      10.2042     -77.4365 
-6.29859e-05      13.1742      41.6774 
9.69550e-05      12.0164      31.7308 
7.40981e-06      10.5771      53.8447 
-4.70812e-05      9.56237     -102.933 
-1.42952e-05      13.5066      45.5402 
-2.68258e-05      13.5259      40.9216 
7.37226e-06      6.20593     -105.513 
3.42867e-05      8.76363      77.6143 
8.00871e-05      7.61839      7.08932 
-1.41973e-05      9.20252      86.0116 
2.87994e-05      13.2428     -41.8786 
2.11438e-05      8.76947      80.9463 
7.34226e-06      8.05887      9.85964 
6.25610e-05      13.4131     -40.8895 
5.24910e-05      7.04468     -39.7016 
2.79541e-05      7.05264     -101.950 
8.03574e-05      9.78380      91.6393 
2.14295e-05      13.6320     -137.557 
1.39532e-05      11.3952     -128.157 
1.42562e-05      8.36245      148.896 
1.39392e-05      7.50514     -145.972 
7.36822e-05      11.4488     -153.213 
4.87070e-05      9.02133      67.5862 
-7.29185e-06      5.93800      103.237 
7.30308e-06      7.82619     -132.828 
2.12520e-05      11.5231      57.3314 
5.36816e-05      5.56504     -62.1461 
3.36907e-05      9.67204     -53.1559 
9.88480e-05      12.2159     -53.1857 
-3.46537e-05      12.4215     -34.6347 
-4.76391e-05      8.47693     -173.361 
1.42386e-05      2.67481     -83.9935 
1.42491e-05      8.58580      149.791 
-7.18595e-06      9.01813     -167.969 
-6.82316e-05      12.2190     -45.3981 
-2.05776e-05      2.98539     -160.836 
1.40262e-05      8.21837      131.450 
7.16943e-06      6.76635     -130.565 
-1.40858e-05      10.1868      104.090 
-7.16268e-06      10.3676     -159.330 
1.40238e-05      10.5886      53.7595 
3.23180e-05      10.9947      60.8231 
3.40921e-05      6.16766     -30.3899 
7.13723e-06      12.7226     -40.6013 
-6.55315e-05      8.25053     -129.786 
-9.88725e-05      9.93966     -110.003 
1.40955e-05      6.04373     -38.9576 
1.38330e-05      13.0931      137.416 
-6.27941e-05      11.4019      131.801 
-4.04723e-05      9.93694     -147.496 
-5.17894e-05      10.4351      39.9475 
1.39549e-05      7.98405      10.1006 
1.38647e-05      13.0780     -128.603 
1.37750e-05      6.15361     -105.845 
-3.26170e-05      9.16105      89.1224 
-7.03293e-06      13.6493      46.0113 
7.00703e-06      7.05670     -102.105 
-2.68789e-05      11.6587     -149.254 
-4.05147e-05      12.2231     -145.060 
7.90103e-05      10.8830     -159.002 
1.37613e-05      12.7180      43.5345 
-6.99309e-06      3.47255      170.045 
-6.99025e-06      9.13027     -96.0339 
-2.02038e-05      13.5963      43.3899 
6.96859e-06      9.00664     -139.413 
1.37857e-05      10.0798      140.877 
6.56826e-05      13.2277     -41.9372 
-9.04191e-05      12.8776      141.368 
-2.68071e-05      9.96865     -94.3732 
3.72918e-05      11.2851     -49.0227 
-6.92936e-06      8.45665     -142.401 
-6.91747e-06      2.56864     -163.259 
1.94653e-05      12.6807     -126.147 
6.78875e-05      7.96842      150.859 
2.63432e-05      10.0955      140.949 
6.90628e-06      12.7323     -140.608 
-3.90287e-05      10.3859     -159.368 
-5.08801e-05      8.90068      117.429 
-5.13813e-05      11.2057     -129.716 
9.75214e-05      13.8629     -43.7148 
6.82073e-06      8.43853      102.453 
-2.56437e-05      3.00453     -160.963 
1.99240e-05      9.25925     -140.257 
6.79926e-06      7.84826      52.6655 
-5.72671e-05      9.82198     -115.835 
-1.31879e-05      5.96637      103.573 
-2.67422e-05      11.6885     -133.059 
7.98203e-05      9.12014      79.2596 
6.76394e-06      11.0269      112.051 
-6.76685e-06      3.32937      172.410 
3.76896e-05      12.0702     -49.3666 
6.74193e-06      7.99974      9.93326 
6.72794e-05      11.5341      57.2466 
-2.60472e-05      10.3354     -101.725 
-5.02039e-05      7.87463      80.2011 
7.32598e-05      9.64128      28.9030 
2.60298e-05      8.60332      149.859 
1.94119e-05      9.94040      150.600 
-2.58914e-05      2.58804     -163.388 
6.71077e-06      7.81243     -132.719 
-8.41494e-05      10.2058      153.333 
-1.32521e-05      2.77837     -59.7369 
-3.84215e-05      10.1819      103.980 
4.36633e-05      12.7172     -140.552 
6.69011e-06      7.90687     -59.6070 
3.86530e-05      13.0876     -128.797 
1.30510e-05      12.6951     -40.5917 
1.88439e-05      3.95462      51.1619 
-6.65728e-06      13.9945      46.9120 
6.65438e-06      13.3940     -48.8138 
-6.65564e-06      13.4924      45.6016 
-1.31281e-05      12.5539      50.8829 
6.64353e-06      8.74040      77.7118 
-0.000156900      11.0419      30.2365 
-7.87915e-05      12.8000      143.129 
6.61445e-05      11.0196      111.957 
1.28574e-05      7.97661      56.3518 
5.53537e-05      11.9480     -137.578 
5.58390e-05      9.01391      67.7008 
-4.21831e-05      13.2549      39.5514 
6.06548e-05      8.23130      131.552 
2.42011e-05      8.44803     -177.556 
1.27316e-05      2.67700     -83.5623 
2.52995e-05      8.34511      148.824 
4.18796e-05      12.7033      43.5975 
6.53936e-06      7.74623      38.2931 
1.28662e-05      10.6006      53.6712 
3.08843e-05      9.43948     -165.522 
-1.28711e-05      8.44907     -112.253 
4.32002e-05      8.27696     -122.768 
0.000102016      13.4285     -40.8329 
-4.39444e-05      13.9728     -134.537 
1.28014e-05      9.71468      4.84303 
1.91124e-05      7.96410      10.1262 
2.51391e-05      12.5552      131.382 
-0.000124991      11.6747     -132.987 
1.90595e-05      12.2854      54.8102 
1.85547e-05      8.48336      38.4888 
-6.45316e-06      9.64921      69.8768 
5.33054e-05      9.78440      91.7579 
-3.16127e-05      13.1911      41.4947 
-3.60972e-05      10.4201      40.0164 
1.25930e-05      6.12161     -103.989 
-1.26473e-05      13.0667      131.275 
-2.42697e-05      12.7100      129.125 
-6.41057e-06      3.35143      172.111 
4.88748e-05      12.9507     -40.5541 
6.42107e-06      8.23846      96.8318 
-2.46002e-05      12.4104     -34.5606 
-4.30956e-05      12.2397     -145.114 
-3.12202e-05      13.9408     -132.734 
-4.20094e-05      10.7891     -55.9574 
6.38104e-06      7.97683      40.1196 
-6.02751e-05      12.2149     -146.961 
2.47379e-05      10.6976     -17.1804 
6.37025e-06      10.6553      110.204 
5.52756e-05      12.8842     -52.6322 
-1.22221e-05      3.42944      69.8680 
-1.25376e-05      13.4788      45.6609 
-6.34892e-06      3.06015     0.379344 
2.46084e-05      10.8609      50.8295 
-3.03179e-05      13.6113      43.2129 
1.85326e-05      8.75947      77.7390 
7.00229e-05      9.03255      80.1848 
1.24470e-05      6.10312      155.196 
1.84973e-05      9.08048     0.757586 
-6.29447e-06      10.1893      9.14877 
6.53723e-05      12.7884      49.8841 
6.28400e-06      12.5798     -138.351 
-1.20554e-05      10.2729      82.2801 
-1.23953e-05      9.96713     -94.2571 
1.20889e-05      7.54655     -164.160 
-3.00469e-05      9.11086     -96.0468 
-1.79081e-05      7.46102      89.2336 
-4.14905e-05      10.3115     -170.174 
6.25332e-06      13.1119      44.0725 
-2.96016e-05      9.31040     -24.0881 
-6.23227e-06      10.1920      104.662 
-2.99590e-05      11.6761     -149.305 
6.22441e-06      13.0749     -128.728 
-1.23804e-05      10.7341     -107.456 
1.83032e-05      7.27158     -58.4948 
2.37663e-05      9.26240     -140.430 
6.22554e-06      3.71681      51.7720 
6.22816e-06      6.15020     -30.4854 
-2.94419e-05      9.91986     -147.433 
0.000168984      10.1762      21.3220 
-9.93086e-05      13.9541     -132.792 
2.37047e-05      14.1001      45.4032 
6.20157e-06      12.0529     -52.4823 
6.19311e-06      10.6126      53.5830 
2.98651e-05      10.1235      140.936 
-3.50125e-05      10.4298      29.0214 
-1.21769e-05      8.45676     -112.380 
4.20047e-05      10.8640     -158.964 
-6.16365e-06      11.2274      120.035 
3.01564e-05      12.2805      54.6784 
-4.76174e-05      9.42678     -70.0274 
-2.94155e-05      11.8298      127.858 
3.02449e-05      13.1259      44.0133 
-4.12631e-05      8.49706     -173.377 
-1.22674e-05      2.58253     -163.803 
4.67069e-05      8.56010      152.898 
7.58193e-05      10.3123     -162.969 
6.15790e-06      8.24090      96.9717 
-3.52569e-05      12.0803     -43.7919 
-3.01075e-05      11.9644      146.177 
1.80059e-05      8.42779     -177.551 
2.87806e-05      10.8902     -158.902 
6.12996e-06      7.96135      40.2135 
-4.75989e-05      13.2057      41.4386 
-4.13349e-05      7.04030      62.4189 
-1.19934e-05      9.66085      70.0253 
9.24997e-05      13.2709     -41.8829 
-4.06105e-05      10.3244     -101.963 
-1.77529e-05      10.1326      72.0655 
4.73176e-05      13.0840     -128.919 
-4.12011e-05      13.9864     -134.711 
1.20937e-05      7.98052      9.95742 
-4.08512e-05      9.16137      89.0003 
6.10623e-06      12.5782     -138.221 
-6.40270e-05      12.3204     -33.9485 
-3.57332e-05      11.3673      132.504 
-1.20709e-05      10.3790     -159.469 
-6.07192e-06      10.2769      67.5771 
-2.92002e-05      13.5106      40.9779 
2.90570e-05      8.32778      148.752 
-1.19422e-05      11.2375      120.125 
-1.19130e-05      12.6375      137.115 
6.06541e-06      6.05949     -38.8371 
6.05973e-06      9.76620      88.0053 
1.77404e-05      10.9932      111.899 
-5.21681e-05      2.60200     -163.928 
-9.27143e-05      12.8935      141.425 
-1.74648e-05      10.1971      104.773 
6.04797e-06      8.62085      149.927 
4.04965e-05      12.9946     -40.5058 
1.77924e-05      12.5833      131.393 
2.34953e-05      7.62082      7.23488 
-2.36319e-05      8.23806     -129.682 
-1.75213e-05      11.1809     -150.178 
-6.03716e-06      9.57761     -102.787 
6.02566e-06      10.6242      53.4984 
1.18729e-05      8.71178     -26.7416 
-1.73772e-05      13.0252      131.202 
-1.20098e-05      1.70995      155.831 
0.000109047      12.2442     -53.1666 
-6.33181e-05      10.6797      55.3005 
2.92503e-05      5.55561     -62.3308 
-5.99738e-06      3.08034      0.00000 
1.18958e-05      7.47574      72.2452 
-4.06507e-05      10.1772      103.873 
5.83481e-05      10.6097      74.0262 
-5.97792e-06      10.4274     -138.422 
-5.73929e-05      10.5361      156.744 
-2.90542e-05      10.7280     -107.353 
1.77177e-05      12.0800     -138.019 
-5.96886e-06      13.4646      45.7225 
3.47944e-05      11.4399     -153.077 
1.17785e-05      8.11635      86.3265 
5.95625e-06      13.9128     -137.273 
2.30310e-05      10.5135      125.867 
-1.15752e-05      10.9090     -112.759 
1.16369e-05      12.6512     -40.6415 
5.95907e-06      10.6321      53.2579 
5.93828e-06      6.77493     -141.471 
-6.31179e-05      1.72845      156.106 
-5.16637e-05      9.83050     -115.937 
-5.92255e-06      10.1700      9.16625 
-5.91819e-06      9.80279      131.692 
5.92176e-06      9.69980     -53.1292 
1.16725e-05      11.8817      58.7725 
-5.90486e-06      2.16420     -116.325 
2.30710e-05      11.4929      37.6473 
-4.56191e-05      12.4040     -145.642 
-2.28683e-05      10.8454      32.9589 
-2.84906e-05      10.3980     -159.508 
5.88704e-06      8.24329      97.1063 
4.04339e-05      13.1405      43.9519 
5.70453e-05      12.8723     -52.7012 
2.87241e-05      13.8979     -137.216 
-5.88589e-06      9.81228     -115.989 
5.70937e-05      12.2918      54.6042 
-1.71832e-05      10.1737     -66.3580 
-1.74073e-05      12.3549      125.645 
2.29523e-05      9.02578     -175.680 
5.87667e-06      12.0414      38.5254 
5.85802e-06      7.94416      10.1519 
-1.16618e-05      8.46782     -112.201 
-1.16658e-05      9.98590     -94.1368 
5.86807e-06      11.3238     -116.202 
1.71945e-05      10.4954      41.8353 
1.15999e-05      12.5648     -127.563 
-2.87340e-05      12.3461     -125.106 
2.29022e-05      10.4229      140.996 
2.85083e-05      10.8515      51.0599 
-5.83484e-06      10.1166      58.0063 
1.71210e-05      9.21576      19.2597 
-5.81729e-06      12.4877      36.7969 
-5.81304e-06      8.23498     -129.876 
-5.82539e-06      13.4505      45.7843 
2.28243e-05      7.96056      9.98264 
2.84067e-05      10.1802     -77.5188 
-5.81761e-06      11.1978     -150.227 
-2.83066e-05      10.4286     -138.576 
-1.17749e-05      4.69984      89.5152 
1.71512e-05      10.7748     -159.008 
-5.79579e-06      8.05089     -50.1425 
1.70572e-05      11.4061     -147.313 
-2.85220e-05      11.3387      132.498 
-3.95409e-05      10.3274     -170.300 
-2.83577e-05      11.9925      146.151 
3.94809e-05      10.1012     0.795960 
2.26370e-05      12.0655     -137.957 
-2.82814e-05      12.7293     -45.7643 
-1.71009e-05      10.0934     -92.9532 
3.38454e-05      10.9587     -156.899 
-1.69381e-05      10.2061      9.01840 
-1.70383e-05      9.66989      141.044 
2.82539e-05      12.7351     -140.736 
-1.69168e-05      9.10883     -95.9248 
-2.26783e-05      12.4720      36.8506 
-5.71459e-06      10.9600     -29.2783 
-3.38283e-05      13.2379      41.2033 
-1.13484e-05      10.8760     -69.0979 
-2.82183e-05      11.3760      151.318 
1.13440e-05      12.6114      131.399 
5.71095e-06      13.4468      47.4108 
-1.69635e-05      11.6929     -149.353 
1.12625e-05      12.0255      38.5855 
-5.69302e-06      8.17525     -112.738 
-1.13285e-05      10.2289     -2.35445 
5.69019e-06      7.12105      1.12910 
1.69058e-05      13.0816     -129.042 
5.68902e-06      10.6438      53.1737 
-1.68681e-05      8.22248     -129.772 
-1.13031e-05      3.12017    -0.372045 
1.68493e-05      13.8201     -43.7680 
-1.68707e-05      8.47550     -112.328 
-5.67773e-06      11.3873      131.867 
-1.68858e-05      7.03178      62.1962 
-1.69279e-05      9.41988     -70.1432 
1.12323e-05      11.5447      57.1652 
5.68448e-06      12.5772     -127.636 
5.67283e-06      12.5933     -138.283 
-1.12830e-05      12.3431      125.568 
5.67404e-06      8.49144      150.356 
-2.24412e-05      10.5895      19.5315 
1.12866e-05      8.61508      72.5751 
1.12456e-05      11.0046      60.7310 
-1.11801e-05      7.60752      87.4390 
-1.68249e-05      12.7878      143.201 
-5.64741e-06      13.6255      43.1567 
1.12181e-05      10.1672      140.988 
-5.64138e-06      7.98730      140.692 
-1.67847e-05      12.5758      126.723 
-1.11928e-05      7.89119      80.3711 
5.62815e-06      10.6014      73.7855 
-2.23506e-05      13.9679     -132.853 
-5.62173e-06      8.06389     -50.0320 
5.61809e-06      12.6299     -135.705 
-1.67979e-05      12.9093      141.481 
-5.63185e-06      9.84208      166.248 
-1.12026e-05      11.3738      131.791 
1.68071e-05      13.1545      43.8929 
1.11818e-05      5.53767     -62.2335 
1.12079e-05      11.4580     -153.123 
5.60974e-06      11.9468     -137.441 
1.67594e-05      10.6153      73.9211 
1.11653e-05      10.2399     -89.7775 
-5.60121e-06      13.9726     -134.654 
3.13504e-05      7.29945     -58.4423 
-5.60030e-06      11.8423      127.935 
-1.11548e-05      13.2362      39.7282 
5.60258e-06      8.46381      150.408 
1.11798e-05      12.6394      131.409 
5.60301e-06      8.11508      86.4693 
-1.11438e-05      9.64245      141.062 
-1.11535e-05      13.7912      42.1772 
5.59731e-06      7.94646      40.3043 
-1.11429e-05      12.3505     -124.977 
-5.58635e-06      13.4656      137.830 
1.11510e-05      9.80527      91.8683 
5.58692e-06      11.3236     -116.431 
5.58677e-06      12.7908      50.0120 
-1.11234e-05      10.4652     -168.087 
-5.58067e-06      10.9424     -29.3301 
5.57797e-06      10.3258     -163.110 
5.57549e-06      10.8298      52.0526 
-5.57664e-06      10.2929      82.2952 
-5.59295e-06      10.0753     -93.1850 
5.58427e-06      9.04379     -175.813 
1.67053e-05      10.5898      107.136 
5.57237e-06      9.62355      28.9613 
-1.11080e-05      11.2969      132.418 
-5.57560e-06      9.39491     -70.2147 
5.57093e-06      12.4920      52.8733 
-5.56352e-06      10.7770     -40.7874 
-5.55804e-06      9.57331     -102.673 
-5.54796e-06      3.14062    -0.725571 
1.76358e-05      13.7469      134.292 
-5.54326e-06      13.4228      45.9060 
-5.54265e-06      12.6870     -45.8291 
5.53954e-06      8.42865     -177.418 
8.77202e-05      10.1931     -15.1279 
-0.000197770      11.4580      26.8772 
0.000142099      11.0927      113.143 
0.000146590      7.81589      53.2159 
-9.60685e-05      11.1087      23.3353 
3.44247e-05      7.29926     -99.4614 
5.86910e-05      12.3668     -144.279 
-8.57001e-05      8.31064     -108.085 
5.70481e-05      8.02091      151.068 
1.40603e-05      7.95418     -59.3051 
0.000135236      8.27336      131.669 
6.49582e-05      4.36179      78.9008 
-5.66801e-05      8.03840     -50.2492 
0.000146207      10.5933     -57.9615 
0.000147401      12.1237     -46.4044 
-0.000165150      12.9069      132.865 
-8.18515e-05      10.4902      35.6911 
-4.29659e-05      10.7725      33.3347 
3.95169e-05      10.6799      52.9159 
5.67844e-05      7.88337      40.8817 
-1.30117e-05      4.29986      44.2435 
-0.000110684      10.2057     -148.056 
4.26432e-05      11.2272     -121.822 
-9.00948e-05      14.0629      46.6151 
-2.53682e-05      1.69148     -114.450 
2.48705e-05      9.34625     -47.9516 
-5.43523e-05      8.91514      101.384 
-5.61762e-05      9.18131      119.635 
0.000129688      12.0983     -49.3590 
-4.29699e-05      8.92045      141.280 
-6.58736e-06      10.8225     -40.5798 
6.01295e-05      7.60073      7.25411 
4.38050e-05      7.91676     -59.4852 
-1.89220e-05      9.48288      39.0939 
3.11609e-05      9.08023     0.629755 
-1.86150e-05      9.54358     -149.943 
6.01807e-05      11.8298     -127.858 
1.24673e-05      9.31814     -47.9572 
7.92146e-05      7.31607     -99.2846 
2.44357e-05      11.4132      116.430 
-6.33858e-06      9.57661      163.873 
-4.22980e-05      10.7792     -40.6355 
-1.23498e-05      9.52861     -119.417 
3.04941e-05      10.5664     -57.9950 
-1.81955e-05      7.01331      62.4836 
8.31946e-05      8.93670     -18.3939 
-8.48589e-05      12.6496     -130.769 
6.30169e-06      4.36574      78.6399 
1.21892e-05      7.76484      45.9397 
-6.23997e-06      8.91131      101.261 
6.18572e-06      11.3699      62.4422 
4.95700e-05      9.14400     -178.246 
5.99365e-05      10.6681      52.9995 
6.08988e-06      10.0658      5.47131 
-7.26608e-05      6.98527      150.499 
1.19689e-05      8.06515      151.084 
-6.08116e-06      10.1885     -147.996 
6.05597e-06      12.5750      136.095 
-3.63643e-05      2.02760     -112.018 
-2.38194e-05      13.0437      48.0454 
-6.02541e-06      9.98396      20.0339 
-6.01203e-06      11.8399      143.035 
6.01037e-06      10.3547     -21.4090 
-5.99838e-06      8.87436     -99.9920 
1.19305e-05      8.02950      47.9280 
-5.98475e-06      11.0764     -29.2966 
-5.96110e-06      13.6211      46.0111 
5.95992e-06      9.13459      104.583 
-5.94783e-06      8.85803     -104.913 
5.93769e-06      7.91777     -64.7318 
-5.93110e-06      7.76552     -54.2242 
1.81871e-05      1.11058     -13.5198 
-1.72755e-05      8.89302      141.299 
5.24696e-05      9.92914      64.2096 
-2.99532e-05      5.25296     -76.1226 
-5.88355e-06      10.8077     -40.6470 
2.89661e-05      8.29896     -123.003 
-6.37298e-06      6.99469      62.7780 
-5.45350e-05      9.46775      39.1683 
7.17078e-05      10.0476      5.59734 
4.76394e-05      12.3204      123.948 
-2.38418e-05      9.32386     -103.142 
-5.31107e-05      9.55225      163.957 
-4.68005e-05      11.8120      143.051 
-6.10504e-06      6.98578      62.9202 
8.32944e-05      7.74946     -150.126 
-2.41221e-05      8.87790     -100.121 
6.05450e-06      10.0969     -168.111 
6.03345e-05      4.34993      78.3256 
4.89171e-05      10.1742     -15.1565 
-1.83887e-05      6.97658      63.0684 
-5.39947e-05      12.0896      40.3023 
-3.61021e-05      4.29957      44.6252 
4.17113e-05      4.68207     -56.8499 
-2.94982e-05      10.6921      68.3756 
4.15647e-05      6.64046     -124.694 
3.02407e-05      2.89049      24.9684 
-5.97663e-06      7.75819     -137.717 
2.90762e-05      8.39653      149.036 
-3.48818e-05      11.1040     -29.3367 
1.78066e-05      11.0072     -34.7875 
4.11543e-05      10.1119     -168.246 
-2.32663e-05      10.9458     -65.4959 
2.32980e-05      8.02758      47.7278 
1.16602e-05      12.5317      136.034 
-2.95347e-05      12.2068      133.872 
4.14910e-05      1.13029     -13.2797 
-5.35092e-05      7.77319     -137.817 
6.59330e-05      10.2165      32.0406 
2.92342e-05      12.3708     -144.408 
-3.49718e-05      12.2748     -131.168 
-5.83575e-05      9.14406      119.481 
-3.48873e-05      10.4269     -133.370 
4.07777e-05      9.50878      138.666 
1.15586e-05      10.3099     -21.3902 
2.91272e-05      8.97203      64.2365 
-2.29138e-05      11.4161      123.496 
-3.45202e-05      10.7174     -132.352 
5.81639e-06      9.04071     0.760919 
6.07508e-05      11.4754     -153.167 
5.35698e-05      7.86611      41.1864 
-3.66906e-05      12.1933      133.806 
3.02825e-05      10.5418     -145.044 
2.36425e-05      9.53127      2.76622 
-2.90145e-05      8.89432     -99.9693 
-1.18333e-05      6.96777      63.2114 
-1.17272e-05      11.1217     -29.2855 
-5.92224e-06      10.0030      19.9941 
-4.07797e-05      10.7511     -40.6269 
5.86095e-06      1.31209      97.8891 
-5.81802e-06      12.9408     -134.312 
3.45747e-05      11.7010     -147.423 
-2.87686e-05      12.0412      133.182 
1.14279e-05      13.7346     -43.8799 
1.70427e-05      3.00057     -137.159 
-3.53030e-05      10.4738      35.7558 
1.76926e-05      10.1982     -15.2337 
1.18599e-05      10.0281      5.60821 
-2.29209e-05      5.27751     -75.9618 
-1.15608e-05      9.40097      26.1274 
-5.81853e-06      4.70006      89.2682 
2.29583e-05      10.9906     -34.8478 
-1.70055e-05      7.88735      107.564 
2.27912e-05      10.6859     -16.9767 
1.13719e-05      7.88295     -132.840 
-5.77323e-06      7.39567      93.7232 
3.51217e-05      12.0570     -49.4397 
-1.13853e-05      10.1321     -92.8272 
1.14280e-05      11.1606     -36.2520 
5.72418e-06      10.6002     -21.2373 
-5.72520e-06      10.6740      68.3370 
1.13400e-05      7.96063      97.0714 
5.69716e-06      7.09229     -101.882 
-1.74151e-05      7.27719      79.7121 
5.80419e-06      10.9046     -158.707 
1.73610e-05      8.60452      63.7925 
-1.71217e-05      2.62059      51.8142 
-1.13980e-05      8.86327     -105.040 
1.70545e-05      1.28783      96.2554 
1.14563e-05      8.57945     -42.3556 
1.14193e-05      13.7768     -43.8237 
5.72205e-06      10.6446     -21.2614 
-1.13138e-05      7.77738     -54.1031 
1.12724e-05      9.37443     -80.2949 
-1.12897e-05      10.7363     -40.6947 
-5.67508e-06      13.0567      47.9817 
-1.15931e-05      9.44922      39.4187 
1.15872e-05      9.56513     -125.981 
5.76368e-06      10.9228     -158.745 
-5.74191e-06      8.00987     -50.2680 
-5.72662e-06      10.0151      19.8456 
-5.70865e-06      2.02009     -111.485 
5.68449e-06      12.1097     -46.4738 
5.67108e-06      9.24862      62.9921 
-1.12915e-05      7.41717      93.8634 
1.14605e-05      10.7379      139.455 
-5.64187e-06      9.41308      146.174 
-5.63335e-06      12.7301     -133.983 
1.16695e-05      4.34588      78.5872 
-5.94819e-06      7.78821     -137.917 
5.87083e-06      7.81199      53.0156 
5.78241e-06      10.9157     -158.840 
5.76102e-06      9.55075      2.76057 
-5.70681e-06      3.49870      30.9659 
-5.68991e-06      7.35520     -20.7018 
5.65909e-06      11.6279     -118.901 
5.65962e-06      9.02045     0.762628 
-5.63322e-06      12.4680      36.9809 
5.63718e-06      7.50829     -164.077 
-5.62504e-06      7.01386      62.1190 
! Tentative model.
! Flux (Jy) Radius (mas)  Theta (deg)  Major FWHM (mas)  Axial ratio   Phi (deg) T \
! Freq (Hz)     SpecIndex
6.23891e-06      11.4756     -153.167 
