! Center RA: 12 21 31.69052,  Dec: +28 13 58.50011 (2000.0)
! Established model.
! Flux (Jy) Radius (mas)  Theta (deg)  Major FWHM (mas)  Axial ratio   Phi (deg) T \
! Freq (Hz)     SpecIndex
 0.0357462    0.0286526      45.0000 
 0.0160678    0.0202604      90.0000 
 0.0660799    0.0446338      63.0042 
 0.0163766    0.0446338     -116.996 
 0.0727842    0.0828082     -104.162 
 0.0132783    0.0397705      90.0000 
 0.0122443    0.0896014     -116.350 
 0.0296521    0.0802914      90.0000 
0.00259311    0.0202604     -90.0000 
 0.0115511      0.00000      0.00000 
0.00511194     0.101837      101.476 
0.00457993     0.107434     -111.727 
0.00511889    0.0202604      0.00000 
 0.0100172     0.121759      99.5784 
0.00887534     0.134233     -116.565 
 0.0118321     0.145849      105.824 
0.00802196     0.126477     -108.327 
0.00147624     0.170734      110.586 
0.00315545     0.152624     -113.162 
0.000145272     0.197181      114.029 
0.000278236     0.223834      116.479 
0.000988190     0.250509      118.638 
0.000265544     0.278118      120.301 
0.000518135     0.332828      122.759 
6.26894e-05     0.360880      123.723 
0.000122979     0.372066      126.223 
0.000352753     0.387976      124.520 
0.000714195    0.0397705     -90.0000 
0.000387252     0.399806      126.913 
0.000359658     0.416183      125.237 
0.00140291     0.145849     -105.824 
0.000565704     0.141777      98.2159 
0.000286025    0.0446338     -153.004 
0.000540526     0.350038      120.964 
0.000842500    0.0286526     -135.000 
5.20511e-05     0.420241      115.375 
0.000299352     0.447333      116.608 
9.92063e-05     0.322315      119.728 
0.000758963     0.465536      115.491 
4.46110e-05    0.0397705      180.000 
0.00128439    0.0202604      180.000 
0.000747065     0.675085      101.997 
0.000916598     0.491629      116.565 
0.000386357     0.304887      121.617 
0.000308388     0.518891      117.566 
0.000377171     0.315980      124.747 
0.000773371     0.679409      103.606 
9.61101e-05     0.344213      125.596 
6.44544e-05     0.545937      118.397 
0.000211039     0.563176      117.453 
8.43371e-05    0.0446338      153.004 
2.90315e-05     0.572799      119.251 
0.00113061     0.164706     -103.973 
0.000551580     0.590559      118.291 
0.000225865     0.411820      129.084 
5.37757e-05     0.810060      105.749 
0.000335257     0.288454      123.649 
0.000191280     0.829578      105.369 
5.10123e-05     0.797167      107.531 
2.57557e-05    0.0562440      135.000 
0.000254165     0.849131      105.006 
0.000360002     0.381773      84.0205 
0.00104773    0.0446338     -63.0042 
0.000289799     0.777872      107.981 
0.000141382     0.867991      104.673 
4.57951e-05    0.0828082     -75.8378 
0.000285287     0.659734      104.020 
0.000229935     0.424884      131.205 
0.000232111     0.887605      104.342 
0.000410147     0.474259      117.619 
0.000848710     0.618057      119.055 
0.000403097     0.784114      109.337 
0.000411438     0.384412      81.0157 
0.000253734     0.907248      104.025 
0.000120478    0.0998015      90.0000 
0.000444671     0.120062      90.0000 
0.000222673     0.438496      133.197 
0.000674546    0.0720098     -56.4755 
0.000405620     0.260826      122.547 
0.000401842     0.931206      104.943 
0.000182211     0.452074      135.000 
0.000310691     0.791053      110.721 
6.86578e-05     0.161111     -97.2243 
0.000307192     0.388092      78.0600 
4.19294e-05     0.640096      104.460 
0.000334865     0.184432     -102.453 
4.02159e-05     0.950796      104.628 
0.000146068      1.01296      99.0785 
0.000117835     0.466621      136.759 
0.000121153     0.780402      112.620 
0.000212294     0.101837      78.5245 
5.61490e-05     0.121759      80.4216 
7.03439e-05      1.16375      109.042 
1.19411e-05     0.635182      118.200 
0.000147651     0.955909      105.760 
4.53491e-05     0.450910      77.2126 
5.98928e-05     0.483985      119.745 
3.94429e-05     0.635505      102.756 
0.000262789      1.17052      109.980 
0.000389087     0.466502      120.980 
4.28262e-05     0.455823      74.7283 
9.17151e-05     0.481580      138.411 
0.000143128     0.369026      77.4333 
0.000240679     0.181229     -96.4188 
0.000121469      1.01006      97.9856 
0.000126346     0.475398      75.3715 
2.93676e-05     0.788112      113.929 
6.78350e-05     0.644631      119.728 
9.60845e-05     0.159832     -90.0000 
0.000114219     0.496341      139.906 
0.000165283     0.961610      106.922 
0.000117616     0.787330      117.224 
0.000340095     0.480914      73.0353 
0.000156060      1.17760      110.906 
0.000208265     0.815792      107.118 
0.000158891     0.373757      74.5128 
0.000270463     0.627763      120.611 
0.000111054     0.512006      141.366 
8.74229e-05      1.00745      96.8445 
3.93656e-05     0.631341      100.963 
0.000286828     0.180093     -90.0000 
0.000138773      1.16591      112.157 
8.64688e-05     0.107434      68.2729 
0.000214310     0.967701      108.070 
0.000109966    0.0286526      135.000 
0.000143814     0.527985      142.739 
6.73960e-06     0.126477      71.6725 
5.37091e-05      1.18470      111.788 
8.27945e-05      1.00523      95.6978 
1.87106e-05     0.796445      118.473 
0.000146522      1.17370      113.074 
0.000111259     0.354273      73.6379 
5.83823e-05     0.788772      120.468 
1.65181e-05     0.161111     -82.7757 
7.25930e-05     0.486965      70.8391 
6.02785e-05     0.980215      91.1844 
9.94022e-05     0.181229     -83.5812 
6.42306e-05     0.543641      143.984 
1.49032e-05     0.803259      108.858 
2.42822e-05      1.19237      112.692 
4.87148e-06      1.02938      97.8348 
2.85050e-05     0.506146      71.5919 
4.66332e-06      1.18945      106.606 
0.000575018      3.20663      113.530 
-0.000507978      4.68978      86.3305 
-0.000237866      10.7059      135.528 
0.000184628      4.04606     -6.52795 
0.000582642      6.37412     -101.765 
0.000441130      9.15177     -150.692 
7.81153e-05      11.7858      46.7182 
0.000280437      3.58738     -67.7268 
-0.000214766      7.13523      11.9693 
-0.000429145      9.32421      31.8495 
-0.000112062      10.6920      135.455 
0.000450076      12.0384      48.1001 
0.000328372      14.1006     -135.632 
0.000174586      9.88738     -140.417 
0.000168725      6.48463     -153.832 
0.000237774      11.7991      46.6492 
0.000346561      7.59425      152.896 
0.000104276      6.37829     -101.943 
-0.000229364      5.91986      124.814 
-0.000193427      2.77119      67.5043 
-0.000125525      5.16624     -13.6608 
-0.000167219      7.90332      120.068 
-0.000100591      7.12899     -63.8638 
9.91710e-05      10.0248     -52.3744 
-0.000102846      8.86884      92.5847 
-3.50942e-05      7.33399     -141.756 
0.000244226      6.98790     -43.8383 
9.81954e-05      1.84006    -0.630882 
9.83932e-05      11.2427     -63.4794 
-3.43871e-05      5.18593     -13.6080 
-0.000129260      9.10178     -160.890 
-0.000125405      10.8505     -46.4207 
9.56222e-05      2.27109     -70.4455 
6.63245e-05      8.19531      15.4258 
0.000214350      7.60073     -97.2541 
3.38639e-05      5.10061      159.576 
-0.000210225      7.33788     -141.973 
0.000184962      3.28793     -126.593 
0.000361446      9.62339      131.209 
-9.12471e-05      5.86684      172.755 
-3.27271e-05      7.35753     -24.4033 
0.000179813      6.98250      68.1380 
-6.31615e-05      5.84674      172.730 
8.81164e-05      8.60986     -19.8231 
6.03162e-05      3.62161     -67.2550 
-6.24532e-05      7.89384     -6.69265 
-0.000176028      8.86978      92.7155 
-9.28352e-05      6.26464      81.7428 
8.98706e-05      5.78043      66.9831 
0.000203821      10.5636     -162.595 
-9.22634e-05      9.41814     -100.522 
7.02249e-05      10.0090      155.945 
-0.000117219      4.11063      18.4316 
3.10948e-05      2.84586     -71.5698 
-8.73918e-05      9.92313      74.4504 
-0.000172825      7.71500      59.9786 
0.000116269      9.90242     -140.489 
-3.05077e-05      7.36592     -24.5468 
8.79129e-05      5.79608      64.2311 
0.000142427      12.0209      134.866 
3.03520e-05      10.4470      145.213 
8.70999e-05      7.77412      147.824 
-8.48351e-05      9.20273     -75.2714 
-8.51745e-05      8.87215     -14.2231 
2.99903e-05      2.85233     -71.1837 
-2.97292e-05      6.22061      9.25325 
0.000112166      7.95122      95.0515 
8.53107e-05      8.10504     -48.5995 
0.000112974      7.36704      167.774 
8.51305e-05      10.4416      145.062 
-8.50208e-05      8.42066      141.171 
5.57588e-05      6.09960      53.1315 
-2.92819e-05      8.81918      173.360 
-5.70267e-05      5.95610      66.4450 
-8.42764e-05      1.68308      86.6005 
8.43242e-05      2.82664     -71.4400 
-2.90349e-05      7.11541      12.0032 
-8.37267e-05      9.41447     -100.401 
-8.38364e-05      6.28469      81.7693 
-5.63009e-05      7.87371     -6.70984 
-8.28402e-05      9.08263     -160.848 
2.86871e-05      5.81433      64.3179 
-0.000110821      12.7997      131.135 
2.85800e-05      10.2635      40.0174 
2.86187e-05      10.1708     -46.3542 
-2.85577e-05      7.14719     -63.9353 
-5.46736e-05      13.9461      44.0713 
8.22576e-05      10.9940     -56.4271 
5.47527e-05      6.52920      112.324 
2.78982e-05      9.99116      155.899 
-5.49227e-05      10.8280     -66.3697 
2.78142e-05      10.4256      145.000 
5.47249e-05      10.2785      39.9475 
5.43862e-05      9.84092      101.012 
2.76002e-05      12.6340     -125.856 
-2.74099e-05      6.04840     -156.826 
-2.73541e-05      7.34578     -24.9603 
2.71383e-05      5.80492      64.0510 
2.70847e-05      7.45662      174.305 
-2.70626e-05      11.2790      145.183 
-2.69108e-05      7.13121      11.8160 
2.68680e-05      2.24430      3.58470 
-2.68103e-05      2.76941     -79.1772 
-2.67803e-05      8.89296     -54.0594 
2.66807e-05      12.0317     -54.5396 
2.65308e-05      10.8274      54.5486 
2.65230e-05      8.40417      84.1270 
2.64747e-05      5.46991      15.9162 
-2.64169e-05      4.51894      151.733 
-0.000280115      3.86914      54.2569 
8.82445e-05      2.12822      111.490 
0.000204575      3.81199     -65.1855 
-0.000145411      10.2811      169.235 
0.000169972      2.12115      111.000 
-0.000142268      9.03146     -71.8059 
-0.000229900      10.3003      169.256 
0.000223108      8.22221      145.305 
9.09272e-05      3.80384     -65.4522 
8.07667e-05      7.35684     -160.628 
0.000153789      8.39209      104.631 
5.11598e-05      7.50396     -88.1662 
5.19104e-05      7.36333     -160.485 
-0.000118249      8.60551      141.984 
0.000127376      9.81094     -74.6319 
-0.000119134      5.31949     -102.158 
-5.10862e-05      4.14909      18.2547 
0.000110520      9.18670      154.327 
-2.52708e-05      3.51209      104.514 
7.12408e-05      11.9889      58.2976 
0.000474867      10.3336      164.971 
-0.000126448      9.40532     -114.768 
4.83428e-05      10.3636      57.2914 
0.000122557      4.02793     -143.072 
-4.74898e-05      9.00589     -71.8881 
-0.000103595      5.80017      149.543 
-0.000143258      12.7423      45.4438 
2.43984e-05      8.38394      61.9670 
-0.000182796      10.9596     -66.1008 
0.000118728      12.0681     -138.226 
-8.96263e-05      4.16762      18.1707 
-0.000141717      10.2965      169.366 
0.000129750      6.52700      114.051 
-2.40901e-05      13.2113     -132.115 
-6.65367e-05      5.29518      116.467 
-8.42906e-05      3.89178     -154.754 
8.56501e-05      7.38770     -70.8786 
2.36253e-05      6.27660      157.522 
-6.50001e-05      3.48743      104.275 
-6.29601e-05      8.01960      161.382 
0.000124785      5.85732     -142.072 
-0.000179092      13.1831     -132.112 
-4.38162e-05      11.1832      113.951 
6.22961e-05      10.5338     -142.173 
-0.000141702      5.37769      125.464 
-2.29266e-05      11.1607     -133.766 
-0.000187491      9.63512     -123.655 
-4.27696e-05      8.21568      161.257 
3.89742e-05      6.68843     -52.4114 
6.03968e-05      5.61024     -141.659 
8.23141e-05      12.0551     -138.295 
7.90281e-05      13.6403     -43.0985 
4.35619e-05      9.38910      21.7572 
-0.000159070      11.1304      58.5957 
0.000146077      5.16955     -3.54521 
-2.16427e-05      8.99985     -72.0062 
-0.000180419      11.1185     -133.690 
9.78878e-05      8.69111     -47.4248 
3.98837e-05      10.3742      57.2008 
-7.71569e-05      13.6480     -134.345 
2.15608e-05      11.9694     -36.0279 
7.71936e-05      7.38172     -160.535 
2.11331e-05      4.73142     -26.3537 
3.90321e-05      6.28438      157.351 
7.47250e-05      8.52998      77.2695 
-2.10776e-05      8.10459     -19.9097 
-5.78307e-05      10.1202      48.8480 
-0.000106684      3.69695      144.242 
2.07806e-05      9.75209      53.5075 
2.06805e-05      11.4769      123.412 
0.000219272      9.39974      21.5984 
7.57086e-05      11.9858     -35.9709 
0.000126098      3.69096      29.9009 
-5.84130e-05      11.5486      120.607 
5.79844e-05      8.35716      65.0894 
0.000164107      11.9991      58.2183 
-5.78368e-05      5.63670      117.926 
-0.000124923      12.0003      127.349 
-7.12029e-05      8.12293     -19.8628 
9.06246e-05      9.68886     -10.7077 
-5.70003e-05      9.53883     -102.840 
3.65716e-05      4.74011     -26.5651 
0.000122225      8.13098      66.2099 
-0.000101001      10.3078      156.320 
-0.000102774      10.7005     -123.719 
1.95727e-05      5.50213     -88.5386 
3.68515e-05      11.5251      118.167 
1.93122e-05      13.0590     -136.674 
1.91370e-05      8.83050      140.974 
7.73608e-05      9.78869     -29.4970 
-5.42028e-05      5.96392     -156.273 
0.000213717      7.04934      177.071 
-3.57524e-05      7.57182      146.312 
-1.87701e-05      5.30460     -156.913 
5.21056e-05      3.80571     -66.1339 
-8.32973e-05      13.3971     -133.489 
5.13330e-05      12.7757      143.274 
-0.000299350      10.6168     -139.891 
0.000113268      10.6303      114.924 
-0.000151357      8.48317      164.127 
-1.82499e-05      5.33435     -101.901 
3.35888e-05      8.23826      145.382 
0.000295074      13.8885      45.6983 
-0.000181193      11.5590      120.694 
-5.00814e-05      7.54419      110.647 
1.77545e-05      13.0598     -136.800 
-0.000126509      13.1696     -132.046 
-1.76374e-05      7.45404     -24.9165 
4.69502e-05      8.81477      140.891 
6.58190e-05      8.36704      65.2737 
0.000159705      9.48627     -163.592 
0.000105455      10.9924      114.282 
1.74059e-05      8.51472      77.1064 
1.73821e-05      10.1479      38.5182 
-4.91177e-05      9.46134      69.4594 
7.53398e-05      10.4994      28.8108 
1.71405e-05      10.8135      26.4690 
0.000203051      11.8825     -33.0498 
-4.84930e-05      10.7299      145.096 
-0.000141964      9.53451     -102.726 
6.21442e-05      9.77886     -111.476 
1.69330e-05      6.71528      29.2374 
1.68811e-05      10.2002     -90.3372 
1.68407e-05      10.9561      36.9123 
-0.000102898      12.7978      131.263 
-3.22310e-05      12.5880      134.099 
-1.67712e-05      5.32325     -156.999 
-1.67592e-05      4.18086      17.8301 
-6.80664e-05      5.38947      125.640 
0.000183180      10.3120     -33.2911 
6.02817e-05      9.20496      154.381 
4.73572e-05      13.1198      138.462 
3.23385e-05      10.0070     -166.240 
-8.80606e-05      12.8718     -133.866 
0.000126384      10.1327      38.5869 
-4.58917e-05      9.92527      106.023 
-4.74410e-05      12.5177      134.028 
1.64076e-05      7.38109     -71.0272 
-6.08875e-05      5.94606     -156.198 
4.37495e-05      7.62232     -117.842 
5.51533e-05      7.19659     -124.928 
0.000107892      10.8782     -123.224 
2.94591e-05      9.74050      53.5998 
-5.93453e-05      8.75770      25.5682 
1.61101e-05      9.57503      71.4898 
8.49813e-05      9.70803     -10.6863 
4.52863e-05      11.3886     -39.0820 
0.000275840      12.1483     -44.3994 
3.01998e-05      9.80559     -74.7460 
3.02642e-05      10.9758      36.7030 
7.11672e-05      8.67923     -47.7087 
8.36944e-05      9.89857     -93.4769 
-4.26757e-05      9.41942      45.6875 
-4.34524e-05      12.7281      45.5088 
1.55870e-05      9.71574     -32.2183 
-1.55217e-05      4.75096     -130.728 
7.07792e-05      12.0016     -35.9162 
1.55191e-05      6.72312      29.0024 
1.55055e-05      10.2204     -90.3365 
1.54640e-05      5.63765     -141.626 
-1.54657e-05      7.44393     -25.1184 
-4.46423e-05      12.8259      131.269 
-4.38368e-05      13.9817     -132.914 
-0.000103612      13.6477     -134.465 
-0.000131389      12.0122      127.423 
1.52693e-05      8.55946      116.805 
-1.52551e-05      5.27705      116.565 
7.78662e-05      7.85197     -8.78987 
-1.51560e-05      4.33353     -172.838 
-1.51411e-05      4.30914     -23.2300 
-4.20309e-05      11.2005      25.3770 
-0.000119644      8.46440      164.091 
0.000120490      8.69897     -5.41011 
-0.000203164      12.8220      132.851 
-4.29915e-05      7.53707      110.503 
-4.27769e-05      8.06397      5.97691 
-0.000230692      11.9562     -140.159 
6.63285e-05      10.0785      79.8279 
-2.28177e-05      11.1409      58.5068 
-5.07564e-05      8.32682      68.7327 
1.48194e-05      11.2261     -64.1201 
-0.000159891      12.8083      132.785 
-0.000245285      13.6335     -134.405 
-6.60158e-05      10.7186     -59.1257 
2.87327e-05      5.85298      167.772 
-1.46571e-05      10.1335      48.7618 
5.14676e-05      10.0266     -166.267 
-9.17550e-05      13.4111     -133.551 
-6.47962e-05      10.7466      145.158 
6.29534e-05      10.2206     -90.4501 
-0.000101697      12.5036      133.962 
0.000126797      7.86498     -128.908 
0.000195272      10.0942      79.9607 
6.79155e-05      8.08175      1.13321 
-1.43747e-05      5.33405     -157.284 
2.82895e-05      12.2145      146.623 
2.67600e-05      10.3571      57.1401 
-0.000224806      9.98593      88.0493 
2.66442e-05      9.69924     -32.2798 
5.19872e-05      9.38161      21.6423 
-2.57632e-05      10.3874     -106.097 
-3.95437e-05      5.30424      116.663 
-1.40408e-05      8.48022     -37.1386 
1.39284e-05      11.3763     -39.0057 
-6.74679e-05      9.46846      69.3446 
2.71249e-05      11.2172     -64.2132 
-8.85553e-05      10.7140      18.5022 
-4.01864e-05      9.46172      45.6009 
-0.000126897      4.40378      151.225 
-6.48785e-05      10.6893     -123.629 
-0.000290675      12.5450     -135.710 
-0.000199183      11.9142      138.334 
-1.36912e-05      5.81764      149.645 
-0.000106375      5.91966     -156.291 
-3.52113e-05      12.4213      46.5642 
-0.000165073      13.6488     -135.891 
6.17444e-05      7.85368      14.6045 
1.35404e-05      13.1332      138.396 
-1.35269e-05      8.43519     -129.803 
-6.34686e-05      10.9678     -66.0041 
0.000252949      7.68262      140.175 
2.40917e-05      10.3466      57.2308 
7.38234e-05      11.3605     -39.0700 
3.76762e-05      5.83318      167.730 
6.80210e-05      12.2315      146.676 
0.000212868      12.0180     -35.8596 
-0.000123403      11.5317     -121.236 
-2.60953e-05      8.70838     -98.1839 
-3.29625e-05      13.9443     -135.000 
-3.42018e-05      11.8947      139.911 
1.32411e-05      12.5724     -128.347 
0.000419078      11.9635     -51.7881 
2.49296e-05      10.9921      36.6399 
-7.04897e-05      8.44818     -129.909 
-0.000158334      13.9949     -132.973 
-1.29622e-05      12.9935      50.1826 
2.52871e-05      9.78599      148.454 
2.53847e-05      11.7819      58.8197 
4.77813e-05      9.13941      11.3598 
-2.53662e-05      11.5557     -122.919 
-5.70992e-05      12.7844      131.195 
-2.49884e-05      12.4082      46.7644 
8.12704e-05      11.0108      114.238 
-2.34485e-05      11.8923      139.773 
-2.42037e-05      6.77781      10.7128 
2.39732e-05      9.78629     -111.586 
-0.000104785      9.96569      88.0453 
-1.25754e-05      8.58120      82.0938 
1.25835e-05      13.1181      138.337 
0.000245205      12.5758     -128.218 
1.24919e-05      7.26666      71.7166 
-7.76534e-05      10.1411      130.601 
3.62697e-05      10.3356      39.9755 
-2.44512e-05      10.3135      38.7829 
1.23175e-05      7.71744      6.99787 
1.22786e-05      8.66561     -47.8077 
-1.22377e-05      9.54566      45.2548 
-1.22406e-05      10.3918     -21.9251 
3.51819e-05      12.8571     -137.900 
-1.21397e-05      10.3202      169.277 
-1.21367e-05      5.10731      93.1415 
6.30383e-05      10.6921      111.624 
3.57124e-05      13.8477     -46.1131 
-5.46921e-05      8.70562     -98.0568 
-5.59890e-05      9.56910      56.9430 
-0.000198772      13.4245     -133.612 
-4.43568e-05      9.40528      45.7758 
3.34552e-05      8.09466      147.412 
1.19733e-05      11.8610     -41.3759 
7.46282e-05      9.87713     -93.3667 
2.32216e-05      9.79269      148.617 
-0.000182254      8.91461     -109.937 
5.38050e-05      7.72728     -75.4618 
-1.19364e-05      10.6322      48.9662 
-0.000242633      10.6724     -123.689 
-1.19086e-05      12.4347      46.4989 
-5.44175e-05      3.48078      16.3526 
-2.32912e-05      6.27829     -12.8868 
-1.18245e-05      7.53026      110.364 
-7.52601e-05      11.8257     -51.3862 
-0.000106904      10.8314      109.975 
-2.31150e-05      14.2980     -44.6045 
9.37919e-05      9.80326      148.516 
-3.36660e-05      11.1275     -123.118 
1.17110e-05      10.3640     -171.120 
-7.43008e-05      10.3008      38.6950 
-1.16996e-05      8.40199     -29.6789 
-8.31920e-05      10.6470      49.0352 
-1.16989e-05      9.44755      45.6886 
2.27656e-05      8.52570      77.3974 
-1.15753e-05      4.42432     -177.404 
6.08689e-05      10.3289     -33.2294 
7.08494e-05      11.7924      58.7355 
6.45435e-05      12.1403     -50.1455 
1.15360e-05      8.20851      42.8254 
2.25156e-05      10.0985      38.8892 
8.08773e-05      9.85855      64.5292 
1.14747e-05      7.40083     -160.588 
-1.14817e-05      8.58391      81.9648 
-1.14607e-05      11.0464     -153.437 
-1.14462e-05      10.7287     -59.0362 
-3.11462e-05      10.9781     -66.1437 
-0.000194699      13.0233      41.3279 
0.000125044      12.5632     -128.145 
1.13974e-05      8.06000      179.717 
5.00233e-05      12.3301      140.395 
5.23034e-05      10.3505      39.9061 
0.000114191      13.8341     -46.1714 
1.13953e-05      9.79414      21.0637 
-7.40249e-05      12.3326     -44.3418 
-4.11084e-05      12.4901      133.897 
-3.09848e-05      9.55848      57.0410 
1.13043e-05      5.18861     -3.31634 
7.70982e-05      12.2038      146.700 
-2.09271e-05      13.0060      50.1166 
-4.08562e-05      9.90437      46.8021 
-0.000148908      10.7325      18.4692 
-3.21593e-05      8.07966      25.0442 
-6.03393e-05      12.0979     -127.951 
-1.11603e-05      9.47563      69.2299 
7.68195e-05      11.9649     -135.676 
9.88577e-05      8.08145      35.7356 
-0.000270273      10.8416     -25.8077 
-3.09061e-05      9.62432     -123.559 
2.17932e-05      9.81305      21.0212 
-1.11083e-05      12.1168      147.332 
-2.17843e-05      10.9863     -66.0470 
0.000106748      12.4326     -49.8278 
7.23360e-05      6.68252      154.278 
3.12016e-05      12.5103     -37.9862 
-1.10430e-05      8.80142      173.214 
4.10860e-05      10.7044     -52.7429 
0.000213289      8.18213      100.708 
1.10288e-05      9.80633     -29.4387 
-0.000181220      9.53007     -102.607 
-1.09828e-05      6.45342      61.2922 
-3.16128e-05      6.25051      170.233 
-0.000218747      9.01960     -169.909 
7.80056e-05      11.8440     -41.5790 
8.87299e-05      11.8909      147.779 
0.000101561      12.9600      39.3634 
1.09186e-05      13.1013      133.269 
-2.13716e-05      14.2838     -44.5466 
-4.11903e-05      10.3164      169.387 
3.13593e-05      8.71839     -5.39802 
8.53540e-05      9.39231      21.4835 
0.000108042      10.6769      107.552 
-0.000118931      12.0524      54.7277 
1.08020e-05      11.6443      53.6618 
-4.14365e-05      11.5689      120.777 
0.000125579      9.76211      80.2104 
-4.93204e-05      9.72550     -103.920 
-2.09687e-05      11.0917     -62.9721 
-3.12407e-05      12.1761     -55.7086 
1.06443e-05      13.0884      138.221 
-2.10432e-05      11.5469     -133.033 
5.10219e-05      13.1290      50.5638 
-6.84250e-05      11.8580      149.716 
1.05821e-05      11.0083      36.5770 
6.95859e-05      13.1152      133.333 
-4.77525e-05      10.7908      145.190 
-4.89587e-05      5.92017      67.7684 
4.07339e-05      9.83197      20.9788 
-3.92278e-05      9.23515      135.612 
2.06298e-05      12.4253     -36.0948 
-4.93185e-05      8.85975     -16.3920 
-0.000147410      11.9967      127.480 
0.000150719      11.9265     -33.0242 
7.68302e-05      11.5545     -135.210 
-2.05915e-05      12.1888     -137.595 
-2.96104e-05      7.41661     -25.3906 
-2.04721e-05      10.6530     -20.7814 
1.03658e-05      6.15466      160.447 
-5.20853e-05      11.1555     -123.148 
-0.000123828      13.4392     -133.552 
-0.000302276      12.1647     -55.7875 
4.95072e-05      10.0977      79.8475 
1.91390e-05      8.54036      77.5586 
1.02329e-05      13.0733      138.162 
-1.02513e-05      10.7520     -115.803 
-3.65749e-05      8.74930      25.4530 
1.01514e-05      10.3286      165.075 
-9.65188e-05      10.8285      114.674 
-4.70529e-05      14.2982     -44.4897 
-8.28015e-05      10.8463     -31.5776 
4.79561e-05      10.5647     -104.247 
-2.80364e-05      8.90483     -114.552 
-1.96877e-05      12.3949      46.8301 
-0.000111989      12.2032     -137.657 
3.72757e-05      9.15854      11.3357 
-4.73034e-05      8.97367      66.3459 
-1.94369e-05      11.8429      136.849 
-0.000208520      11.5607     -133.106 
-9.97209e-06      7.28142     -144.390 
-4.74523e-05      9.01443      38.2427 
7.31655e-05      8.02872      13.0998 
-1.95823e-05      7.81215      151.729 
-4.68140e-05      11.1445     -123.061 
5.78893e-05      13.5503      44.0442 
-3.77968e-05      9.58027     -136.946 
-9.80429e-06      8.64220     -33.5797 
9.82981e-06      7.78447     -175.433 
-4.60241e-05      10.7703     -115.756 
-3.76523e-05      10.6719     -20.7428 
-9.77610e-06      9.72705      102.950 
1.92629e-05      8.06708      147.451 
-9.73538e-06      7.06530     -6.50080 
5.34472e-05      12.9258      134.624 
-9.69400e-06      11.7007     -128.477 
-9.71332e-06      8.09802      24.9835 
-9.67495e-06      13.4257     -133.492 
1.88401e-05      5.85337      48.7422 
-0.000219928      9.73161      103.066 
-7.37523e-05      10.3364      169.408 
0.000115707      13.1419      50.4956 
9.67494e-06      13.0582      138.103 
9.65760e-06      9.70430     -10.5688 
-9.64369e-06      12.6442      134.103 
4.66180e-05      12.9634      39.2399 
-2.74640e-05      8.98938      26.8517 
-4.58114e-05      12.4485     -43.6982 
-2.75670e-05      10.5503     -56.5202 
-9.55507e-06      11.1091     -63.0178 
3.76374e-05      13.8949     -136.867 
8.58662e-05      12.1559     -50.2067 
-5.29732e-05      8.73694     -156.954 
-2.72655e-05      11.0879      67.1833 
2.80893e-05      11.5366     -130.291 
5.41888e-05      7.80466     -175.445 
-1.87893e-05      9.90528      46.9616 
-0.000222972      10.9196      28.6768 
3.54304e-05      8.73856     -5.38552 
-9.45282e-06      6.96850      6.75922 
9.46696e-06      8.18520      77.1550 
-1.86852e-05      11.5793      120.863 
-1.87294e-05      11.6171      122.842 
-9.43860e-06      12.3181     -44.4077 
-4.51713e-05      11.0666      56.7970 
0.000111919      9.38635     -72.2618 
-2.73634e-05      8.08949      24.8535 
-1.85334e-05      7.87837     -44.0738 
9.37777e-06      10.0570      127.485 
7.81629e-05      9.86027     -90.3488 
-1.78132e-05      9.26020     -67.2562 
1.84252e-05      4.37796     -12.1304 
9.34427e-06      10.0463     -166.295 
-9.33578e-06      11.7037     -128.965 
9.32527e-06      8.45918      83.2091 
-1.85770e-05      6.02259     -175.047 
0.000112892      13.5358      44.1038 
-1.76844e-05      12.3629      40.9317 
0.000128731      13.1354      130.554 
6.98098e-05      10.4461      78.0645 
3.56768e-05      8.18088      77.2882 
-7.79299e-05      10.4073      66.4385 
0.000115197      13.5639      44.1034 
-6.19077e-05      9.02005     -151.672 
-1.82663e-05      10.2865      62.6872 
9.26313e-06      12.3322     -126.294 
-1.81517e-05      10.2742     -19.9159 
9.24197e-06      9.85019      20.9382 
-0.000216973      10.5033      16.7118 
-9.23719e-06      8.62148      142.067 
-3.52716e-05      12.8130      131.203 
2.63626e-05      9.59853      95.1401 
2.67869e-05      11.9351      38.1957 
-0.000246662      12.0090      127.557 
2.56890e-05      9.08699      159.651 
9.17834e-06      12.3968      42.9101 
2.66615e-05      8.17404      121.084 
0.000299953      13.8801     -136.809 
-9.13823e-06      6.95071      6.93858 
3.54015e-05      10.4024     -116.613 
4.34205e-05      10.8768      26.1885 
0.000104276      13.9022      45.6407 
5.96554e-05      10.3865     -113.012 
-6.19776e-05      11.6277      122.923 
-9.10287e-06      7.57779      129.108 
-1.78508e-05      6.06051     -175.270 
5.28762e-05      11.5390     -130.149 
7.68255e-05      8.97404     -175.016 
0.000283094      13.3789      135.364 
-0.000175170      8.99853      38.3225 
-9.05609e-06      11.6141     -59.2394 
1.71494e-05      11.6563      53.5816 
-1.75116e-05      13.5495      134.282 
-2.66060e-05      8.87919     -16.3551 
5.02922e-05      7.94460     -105.925 
-0.000108907      6.04106     -175.255 
-2.57111e-05      7.48416     -128.707 
5.17554e-05      11.4398     -148.366 
1.75835e-05      11.2871      43.9953 
-7.57325e-05      12.5595     -135.775 
-3.45304e-05      12.4755      133.962 
9.91627e-05      11.8424     -41.7122 
-4.33671e-05      7.89240     -43.9753 
-1.75438e-05      11.7164     -129.042 
1.75889e-05      10.2253     -62.3819 
5.98700e-05      10.6708      107.449 
0.000102494      11.4330     -27.7323 
0.000134821      12.9785      39.1855 
-2.55907e-05      13.1962     -132.174 
6.56815e-05      8.47930      83.2253 
-9.44272e-05      10.3555      169.428 
-0.000101862      10.7518      18.4349 
-4.29729e-05      8.96556      66.4645 
1.76890e-05      10.6163     -160.064 
2.62504e-05      9.72793     -168.137 
6.64200e-05      11.5684     -135.279 
-2.58756e-05      13.2249     -132.181 
8.80178e-06      13.7746     -44.7661 
5.10474e-05      12.5891     -127.707 
-1.74492e-05      11.5626      120.913 
1.72549e-05      9.52809     -22.8514 
8.77697e-06      4.81697      103.688 
8.74959e-06      12.6559      137.562 
-6.68617e-05      8.46906     -40.5011 
-1.72394e-05      11.6245     -59.1536 
-0.000108069      14.0088     -133.033 
-5.01508e-05      10.6650     -20.6447 
-4.23493e-05      10.2811     -20.0220 
-7.47033e-05      11.7106      44.1692 
8.73241e-06      4.35815     -12.1864 
-0.000115897      12.2182     -137.721 
-4.23073e-05      13.1090     -49.5805 
2.54994e-05      8.09791      35.6519 
0.000132039      10.6281     -160.199 
4.17278e-05      8.55168      77.8480 
0.000131272      10.4258     -11.3949 
-7.36615e-05      8.10720      24.7955 
4.97493e-05      13.7890     -44.7068 
0.000115530      9.70810     -168.112 
-1.70849e-05      13.3383     -132.205 
-2.53386e-05      9.84715     -87.7902 
8.24907e-05      11.4989      58.0814 
4.16437e-05      9.81530      39.6244 
-4.98145e-05      8.50266      164.164 
-1.70176e-05      10.7615     -115.659 
-8.55305e-06      10.9320      38.4645 
7.32470e-05      10.3839      31.8535 
-9.81180e-05      11.5730      120.999 
-1.68769e-05      8.97131      26.9101 
3.29670e-05      12.0098      58.1362 
-4.10443e-05      14.3127     -44.4329 
3.30381e-05      12.6541      137.434 
-8.50793e-06      6.36134     -154.886 
-1.68397e-05      11.0997     -28.8748 
0.000114079      7.82486     -175.457 
-8.51036e-06      10.5391     -56.6120 
-2.46767e-05      10.6197     -140.042 
-3.35306e-05      11.6387      123.007 
4.92102e-05      11.2895      60.0284 
-8.46237e-06      10.1302     -87.3974 
6.49420e-05      10.3044     -27.0129 
-2.47078e-05      11.2846      42.1971 
-0.000121939      9.54053     -102.348 
0.000202359      13.5494      44.1631 
-8.44519e-06      8.89557     -109.982 
-6.48870e-05      11.2726     -134.067 
1.64876e-05      11.3012      44.0692 
2.46261e-05      9.67789      117.044 
-8.39148e-06      9.01045     -151.785 
-8.37811e-06      9.91267     -53.6168 
8.35819e-06      11.3320     -39.0550 
-2.41800e-05      10.2837      13.9551 
8.36637e-06      12.5170      138.952 
8.36343e-06      11.5289     -129.933 
-8.35996e-06      9.55653      18.5473 
-1.65304e-05      10.7345     -115.609 
-4.90398e-05      12.9344     -50.0812 
4.02881e-05      9.86728      64.4229 
-2.47229e-05      11.0609      56.6571 
-7.34559e-05      10.3755      169.448 
8.09828e-05      10.5139      121.544 
7.28952e-05      10.4169     -58.9025 
-3.29101e-05      12.6864     -41.1005 
1.64065e-05      12.9400      134.688 
-5.68276e-05      10.5159     -110.022 
4.87661e-05      11.5179     -129.716 
8.28011e-06      11.9509     -135.611 
-4.07020e-05      9.02831     -151.846 
-8.27491e-06      8.90251     -110.104 
2.46059e-05      9.74587     -66.5378 
0.000113261      13.9163      45.5811 
-5.68435e-05      9.84641     -87.9036 
-5.66022e-05      9.90066     -53.7111 
5.66269e-05      13.1516      50.3058 
3.25140e-05      12.6051     -127.650 
-1.63738e-05      9.64569      44.4957 
8.24806e-06      10.1948     -111.884 
-1.64322e-05      7.68872      169.507 
-8.25058e-06      5.91253      67.9501 
0.000104584      11.7122      29.2354 
-1.64040e-05      11.1945     -24.8232 
-8.23660e-06      11.4226      124.441 
5.66963e-05      13.5218      44.1613 
-4.82545e-05      9.53732      18.5861 
2.43579e-05      12.5303      138.883 
0.000144388      11.4421     -27.8187 
8.85409e-05      10.3090      165.046 
0.000112391      10.6907      23.0143 
-5.66115e-05      11.6497      123.090 
1.63103e-05      9.75585      173.880 
8.20300e-06      11.2263     -64.3462 
1.63199e-05      11.4157     -27.7778 
1.62275e-05      11.4332     -148.226 
-3.13180e-05      10.8074      145.252 
-1.61548e-05      8.73943      25.6256 
-8.18104e-06      8.95749      66.5833 
-0.000160327      10.7710      18.4009 
0.000104412      10.4319     -77.3773 
6.45679e-05      8.99256     -175.151 
4.81263e-05      13.5795     -46.1933 
-6.44009e-05      13.2772     -140.196 
6.42890e-05      10.2024     -111.990 
-8.17659e-06      11.9272      138.264 
-8.01513e-05      13.0386      41.2691 
-0.000136200      10.4183      169.379 
-8.81327e-05      12.6997     -41.1694 
-8.17126e-06      9.57882     -136.778 
2.42335e-05      8.10200      35.4550 
6.40530e-05      10.7810     -54.8962 
1.61064e-05      12.7312     -128.238 
3.21888e-05      5.48317      15.6567 
-6.42243e-05      7.70791      169.534 
-4.81305e-05      8.43694      25.1086 
3.21737e-05      10.0329     -98.5986 
8.01262e-05      14.0997      44.9418 
-4.01142e-05      10.0748     -159.550 
2.41308e-05      12.0344     -35.8031 
8.12924e-06      10.4610      114.752 
-1.61902e-05      10.7260     -115.515 
3.20286e-05      12.5932     -127.580 
-1.61673e-05      13.3437      138.280 
8.10018e-06      8.47693      83.3613 
3.99794e-05      8.04845      13.0671 
-4.79839e-05      13.0678     -49.6556 
-5.59737e-05      8.35512      108.565 
3.20576e-05      12.2207      146.752 
-4.00881e-05      10.2788      13.8455 
2.40460e-05      11.9651     -135.541 
-2.39850e-05      8.97608      66.6347 
-8.09500e-06      10.6623      49.1065 
-8.09538e-06      11.1863     -24.7325 
-1.61179e-05      13.1308      141.245 
3.20024e-05      12.6530      128.518 
1.60271e-05      10.4363     -77.2688 
1.59985e-05      12.8792      49.4067 
-4.01089e-05      9.98664      87.9331 
-3.20840e-05      12.9455     -142.279 
3.20977e-05      12.9942      39.1290 
-5.58925e-05      11.1680     -24.7759 
4.79649e-05      13.1548      50.4275 
-3.19565e-05      11.0721      56.5695 
-8.06374e-06      12.6646      41.6710 
8.05540e-06      10.4502      77.9598 
-5.58801e-05      12.4827     -137.207 
8.03261e-06      9.75365     -66.4327 
-8.04582e-06      10.4151      66.3401 
-2.40006e-05      8.52215      164.202 
-6.37903e-05      10.9099      28.5834 
-7.97958e-05      13.3589      138.338 
-8.02943e-06      11.9417      138.327 
3.19281e-05      10.4426      114.799 
-7.90993e-05      4.60684      121.689 
7.99456e-06      11.0124      36.4350 
1.59750e-05      9.65130      116.989 
2.39643e-05      9.86041     -90.4666 
-1.59903e-05      8.96836      66.7492 
0.000103701      10.2401     -179.551 
-7.97548e-06      13.1156      141.192 
3.98783e-05      11.1621      118.817 
3.18512e-05      12.5456      138.943 
-7.99122e-06      7.48805     -169.380 
-2.39433e-05      10.8921      28.6344 
3.19191e-05      12.5883     -128.290 
-7.17066e-05      10.7076     -18.3994 
-2.39567e-05      6.05893     -175.454 
-2.39199e-05      12.9474     -50.0125 
7.99881e-06      6.22537     -92.3903 
9.56138e-05      13.8659     -136.754 
2.39177e-05      9.08023      159.766 
-3.98440e-05      10.6990     -115.463 
-7.98264e-06      10.8396     -31.7250 
-2.39321e-05      8.23077     -27.8079 
-7.97709e-06      13.4385     -133.674 
-3.98446e-05      12.2332     -137.784 
5.57272e-05      11.9510     -51.8644 
-5.57669e-05      13.0876      141.203 
3.18765e-05      11.2518     -63.3871 
-8.00619e-06      8.72903     -157.076 
2.39120e-05      13.5072      44.2212 
2.39108e-05      9.94794     -112.958 
-3.98216e-05      11.6546      123.308 
3.18645e-05      9.48078     -106.295 
2.39250e-05      13.0863     -136.547 
-4.78069e-05      14.0226     -133.094 
2.38723e-05      8.11851      35.3721 
-2.38828e-05      11.9261      56.2839 
3.18833e-05      13.4927      44.2812 
-1.59397e-05      10.7684      126.998 
2.38466e-05      8.99423     -175.027 
5.57314e-05      13.9305      45.5216 
3.98413e-05      10.9478     -63.2927 
-1.59170e-05      7.48434     -169.533 
3.18060e-05      13.0123      38.9493 
7.95657e-06      12.0205      58.0541 
7.96433e-06      12.7597     -128.254 
-3.98604e-05      13.2928     -140.252 
-7.96397e-06      8.95392      26.9666 
1.59032e-05      10.5241      121.634 
-2.38653e-05      10.3991      100.641 
7.96231e-06      11.2794      60.1175 
-7.96377e-06      9.36138      90.8589 
2.38884e-05      11.5211     -129.577 
7.96742e-06      13.1200      130.612 
7.95409e-06      9.01200     -175.161 
1.58954e-05      12.1628     -44.3326 
-1.59189e-05      11.6657      123.392 
7.95834e-06      9.80287      39.5366 
-2.39276e-05      6.03948     -175.439 
6.29320e-05      7.66707      140.078 
7.95677e-06      13.1286      133.395 
-7.96244e-06      8.45424     -40.5870 
-2.38713e-05      9.36110      90.7349 
-7.95245e-06      10.3942      168.907 
7.96433e-06      9.73211     -168.020 
-1.59192e-05      11.5720      32.8667 
-1.59011e-05      12.8231      132.723 
1.59206e-05      13.3932      135.302 
-7.95379e-06      9.23388      39.5528 
1.59442e-05      7.95877     -105.750 
-7.95014e-06      10.7854      28.7030 
7.96961e-06      13.4788      44.3391 
-1.59321e-05      13.2148      46.7165 
-7.96573e-06      8.99612     -170.014 
1.59176e-05      11.5032      57.8567 
7.93108e-06      4.99333     -85.8635 
1.59542e-05      13.1010     -136.608 
-7.99414e-06      12.3188     -38.8059 
-2.38931e-05      10.4141      168.929 
-7.98704e-06      10.6919      17.0806 
7.94921e-06      11.1161      118.594 
-7.94324e-06      10.3718      169.558 
-7.94732e-06      11.9870      56.0165 
-7.95838e-06      11.5831      121.082 
-7.97125e-06      11.5746     -133.179 
7.96532e-06      11.3448     -39.1345 
7.97347e-06      12.1492     -44.2668 
7.97584e-06      7.84431     -175.468 
-7.95870e-06      10.6907     -115.369 
-7.96548e-06      8.24804     -27.7447 
-9.38344e-05      9.39349     -98.0777 
-0.000131574      12.9000     -38.8940 
6.23002e-05      11.6554     -61.0604 
-0.000135319      11.1515      58.4180 
8.38844e-05      11.6279     -61.0995 
7.48383e-05      11.4311      62.9404 
3.49713e-05      9.60073      89.1625 
-4.91246e-05      10.6275     -54.5761 
5.84623e-05      12.3087     -126.145 
6.42088e-05      9.16932     -110.293 
-4.91291e-05      9.91825      46.7168 
5.50805e-05      12.3063     -136.186 
3.34341e-05      12.6863      135.575 
8.64639e-06      10.9325     -135.520 
1.68048e-05      12.1429     -50.2801 
4.79377e-05      11.8723     -49.4396 
-5.53735e-05      13.1166      40.0523 
8.47389e-06      12.2923     -136.254 
-7.03767e-05      9.41567     -98.1831 
8.59810e-05      9.38043     -72.3753 
3.91479e-05      12.7242      142.987 
-2.37080e-05      7.64238      24.7508 
4.63401e-05      8.79351     -115.749 
-1.59333e-05      12.1273      147.254 
-1.59226e-05      13.0968     -38.9884 
8.12498e-06      10.9180     -135.446 
-1.59945e-05      6.95739      66.0890 
3.84166e-05      13.3088     -134.210 
3.87822e-05      9.60045      89.2834 
-1.58188e-05      10.3803     -111.474 
5.40529e-05      12.3017     -125.939 
2.33230e-05      10.2258      100.935 
1.57632e-05      10.1311     -12.7732 
-1.55393e-05      10.2526     -69.4415 
3.07750e-05      13.1928      138.625 
2.31587e-05      12.7005      135.510 
3.10999e-05      13.7352     -133.760 
-2.31030e-05      10.4567      25.9785 
-1.54385e-05      13.0060      47.1791 
1.51516e-05      7.88004      179.564 
-2.25912e-05      13.5635      134.224 
1.51577e-05      9.74562      80.0728 
-3.00317e-05      12.2897     -44.5374 
2.23170e-05      8.07759      147.334 
3.03247e-05      12.6719      135.511 
-3.76072e-05      11.2731      25.2021 
1.50031e-05      10.9459      135.147 
-1.49377e-05      12.3476      40.9933 
-7.57279e-06      9.17398      74.9623 
-1.50828e-05      6.96563      65.9366 
-7.54810e-06      11.8530      37.5279 
-3.09376e-05      13.1818     -132.231 
-7.53325e-06      13.6347     -135.952 
2.28080e-05      10.0733     -48.4607 
-7.52901e-06      12.6327      140.590 
-7.49834e-06      7.45588      133.369 
-7.49373e-06      12.3058      42.0366 
3.00728e-05      12.7307     -46.2729 
-7.46990e-06      10.8061      109.910 
7.46377e-06      5.50268      15.5998 
-7.43895e-06      10.7960     -63.0075 
-7.44060e-06      4.38603      151.098 
-7.40897e-06      13.0209      47.2397 
-7.40229e-06      8.75540     -128.416 
7.38263e-06      9.72981     -66.7567 
-1.54798e-05      6.50786      164.127 
2.28735e-05      11.8575     -49.3783 
1.53260e-05      12.3209     -136.251 
1.52662e-05      10.1113     -12.7986 
7.67767e-06      11.4006      142.628 
-7.56581e-06      12.1444      147.306 
-1.48924e-05      8.23969     -38.5962 
7.54967e-06      10.2297      101.046 
7.45585e-06      11.4161      142.687 
7.44599e-06      8.45681      83.3454 
7.44078e-06      5.41865     -43.3503 
7.41192e-06      9.42962     -137.751 
-7.37446e-06      9.02233      91.3964 
-7.35154e-06      11.2996      42.1281 
7.35102e-06      9.17611     -110.407 
7.34175e-06      9.74214      80.1901 
-7.36891e-06      7.89297     -43.7674 
7.36762e-06      13.0731     -50.5877 
7.32142e-06      10.3866     -169.123 
-7.33647e-06      11.7292     -129.119 
-7.32859e-06      12.5148      140.381 
-7.30960e-06      12.9982      50.4320 
! Tentative model.
! Flux (Jy) Radius (mas)  Theta (deg)  Major FWHM (mas)  Axial ratio   Phi (deg) T \
! Freq (Hz)     SpecIndex
-8.02941e-06      11.1515      58.4194 
