! Center RA: 12 21 31.69052,  Dec: +28 13 58.50011 (2000.0)
! Established model.
! Flux (Jy) Radius (mas)  Theta (deg)  Major FWHM (mas)  Axial ratio   Phi (deg) T \
! Freq (Hz)     SpecIndex
 0.0365368    0.0282843      45.0000 
 0.0150512    0.0200000      90.0000 
 0.0557429    0.0447214      63.4349 
 0.0354393    0.0632456     -108.435 
 0.0517342    0.0824621     -104.036 
 0.0102179    0.0894427     -116.565 
0.00492023    0.0632456      71.5651 
 0.0402715    0.0600000      90.0000 
0.00320378    0.0800000      90.0000 
0.00254755     0.101980      101.310 
0.00625188     0.107703     -111.801 
0.00842896    0.0200000      0.00000 
 0.0109350     0.121655      99.4623 
0.00726810     0.134164     -116.565 
 0.0111757     0.126491     -108.435 
0.00127603    0.0200000     -90.0000 
 0.0127824     0.145602      105.945 
 0.0120925      0.00000      0.00000 
0.000442128     0.141421      98.1301 
0.00204748     0.152315     -113.199 
0.000979980     0.170880      110.556 
0.000143356     0.196977      113.962 
0.000206936     0.223607      116.565 
0.000619167     0.100000      90.0000 
0.000799760     0.250599      118.610 
6.41588e-05     0.305287      121.608 
6.34961e-05     0.332866      122.735 
0.000246234     0.360555      123.690 
6.22163e-05     0.277849      120.256 
0.000674878     0.388330      124.509 
0.000217008    0.0200000      180.000 
0.000642017     0.145602     -105.945 
0.000105684     0.121655     -99.4623 
0.000256072     0.416173      125.218 
5.06968e-05    0.0282843     -135.000 
! Tentative model.
! Flux (Jy) Radius (mas)  Theta (deg)  Major FWHM (mas)  Axial ratio   Phi (deg) T \
! Freq (Hz)     SpecIndex
0.000799961     0.141421      98.1301 
0.000398675    0.0447214     -153.435 
0.000991453     0.152315     -113.199 
0.00218540     0.120000      90.0000 
0.000633073     0.349857      120.964 
0.000758110     0.121655      99.4623 
0.000740561    0.0282843     -135.000 
0.000104523     0.367151      119.358 
0.000298521     0.447214      116.565 
0.000484059     0.465188      115.463 
0.000483742     0.332866      122.735 
0.00133142     0.145602     -105.945 
0.00163238    0.0200000      180.000 
0.000827677     0.491935      116.565 
0.000786367     0.674685      101.976 
0.000116830     0.305287      121.608 
0.000592195     0.518845      117.553 
7.31171e-05     0.344093      125.538 
0.000430346     0.316228      124.695 
0.000762118     0.679117      103.627 
3.22948e-05     0.372022      126.254 
0.000124419     0.545894      118.443 
9.08437e-05     0.400000      126.870 
0.000145993     0.563560      117.474 
0.000457728     0.141421     -98.1301 
0.000530849     0.474131      117.646 
0.000647798     0.288444      123.690 
2.84690e-05     0.573062      119.249 
0.000233079     0.412311      129.094 
5.54442e-05    0.0400000     -90.0000 
0.000563385     0.590593      118.301 
2.72289e-05     0.791202      106.144 
0.000357128     0.100000      90.0000 
0.000231045    0.0200000     -90.0000 
5.33374e-05     0.810432      105.751 
7.69215e-05     0.796994      107.526 
9.47777e-05     0.829699      105.376 
2.53578e-05     0.380526      86.9872 
0.000357690     0.382099      83.9910 
0.000244948     0.848999      105.018 
0.000159427    0.0632456     -71.5651 
0.000223215     0.777946      107.969 
0.000704943     0.164924     -104.036 
0.000182057     0.868332      104.676 
0.000239621     0.425206      131.186 
0.000740554    0.0447214     -63.4349 
0.000280895     0.659697      104.036 
0.000439139     0.260768      122.471 
0.000202707     0.887694      104.349 
0.000772384     0.617738      119.055 
0.000376050     0.784347      109.359 
0.000217365     0.438634      133.152 
0.000393577     0.384708      81.0274 
0.000179987     0.907083      104.036 
0.000250701     0.931450      104.931 
0.000208433     0.452548      135.000 
0.000411960     0.161245     -97.1250 
0.000559801     0.791202      110.726 
0.000288475    0.0721110     -56.3099 
0.000213414     0.101980      78.6901 
0.000273938     0.388330      78.1113 
0.000162217     0.950789      104.621 
5.19433e-05     0.640312      104.470 
1.36045e-05     0.992975      99.2726 
8.79894e-05     0.121655      80.5377 
0.000146325      1.01272      99.0903 
0.000192690     0.466905      136.736 
0.000754509    0.0565685     -45.0000 
7.16272e-05     0.780000      112.620 
0.000155480     0.184391     -102.529 
0.000186026     0.956033      105.781 
4.74228e-05      1.16379      109.058 
1.19749e-05     0.635295      118.179 
0.000404281      1.17047      109.983 
0.000223821     0.475395      75.3791 
0.000363498      2.12810      111.501 
0.000242528     0.368782      77.4712 
0.000724315     0.466476      120.964 
6.63010e-05     0.635610      102.724 
0.000113378     0.644981      119.745 
0.000137623     0.481664      138.366 
9.39488e-05      1.00975      97.9696 
0.000145543     0.160000     -90.0000 
0.000205847     0.181108     -96.3402 
0.000151672     0.107703      68.1986 
0.000199256     0.961665      106.928 
0.000528835      2.13551      112.001 
0.000446496     0.496790      139.899 
0.000282647     0.480833      73.0725 
0.000242587     0.816088      107.103 
0.000254092      1.17745      110.898 
0.000271529     0.373631      74.4759 
0.000499294     0.627694      120.651 
6.78445e-05      1.00717      96.8428 
5.98540e-05     0.631506      100.954 
6.44984e-05     0.967678      108.060 
4.21955e-05     0.986712      107.700 
7.30861e-06     0.787147      117.216 
0.000169981     0.180000     -90.0000 
8.34165e-05     0.272029      126.027 
8.82631e-05     0.796492      118.496 
0.000351655     0.161245     -82.8750 
2.63867e-05      1.00499      95.7106 
0.000183797     0.992975      108.800 
0.000241084     0.803243      108.886 
4.83975e-05     0.980204      91.1691 
0.000137065      1.18474      111.801 
0.000100521     0.116619      59.0362 
3.88032e-05     0.980000      90.0000 
1.06357e-05      1.17644      107.819 
0.000242995      2.05572      107.554 
0.000250313     0.960000      90.0000 
0.000174407     0.487032      70.8210 
0.000248934      1.18962      106.607 
3.31196e-05      1.19231      112.694 
0.000161922     0.999600      109.885 
1.43250e-05     0.788923      120.466 
0.000110933     0.181108     -83.6598 
0.000157485     0.354401      73.6105 
1.40546e-05     0.806226      119.745 
0.000112367      2.23786      114.274 
9.80535e-05      2.14308      112.496 
0.000139424      0.00000      0.00000 
3.04788e-05    0.0848528     -45.0000 
1.24790e-05     0.628013      99.1623 
8.71897e-05     0.799250      121.701 
6.99544e-05      1.18186      113.962 
-0.000504706     0.170880     -159.444 
2.30017e-05     0.269072     -138.013 
5.58918e-05     0.284253     -140.711 
9.45411e-05     0.164924     -75.9638 
0.000118321      1.00658      110.956 
8.55963e-05     0.493964      68.6294 
5.88707e-05      1.19013      114.842 
7.71262e-05      2.15081      112.989 
5.57972e-05     0.349285      76.7595 
1.68374e-05     0.128062      51.3402 
5.74423e-05     0.288444     -146.310 
3.82028e-05      1.18406      105.680 
1.66971e-05    0.0894427     -63.4349 
-8.54369e-05     0.636553      133.727 
-6.14773e-05     0.740000      90.0000 
-6.32528e-05     0.188680      147.995 
