! Center RA: 12 21 31.69052,  Dec: +28 13 58.50011 (2000.0)
! Established model.
! Flux (Jy) Radius (mas)  Theta (deg)  Major FWHM (mas)  Axial ratio   Phi (deg) T \
! Freq (Hz)     SpecIndex
0.00565071      14140.3     -134.989 
-0.00199278      14135.2     -134.985 
0.00224150      14134.0     -135.022 
0.000684559      14144.5     -135.013 
0.00325971      14146.0     -135.020 
0.00185841      14144.5     -135.013 
-0.00326135      14141.4     -134.968 
0.00114565      14129.4     -134.997 
-0.00143480      14128.8     -134.995 
0.00107465      14141.5     -135.013 
-0.000550971      14151.0     -135.005 
-0.00179848      14135.2     -134.985 
0.00354561      14141.5     -134.949 
-0.00107399      14151.0     -135.005 
0.00223139      14141.5     -135.013 
-0.000821459      14146.9     -134.973 
0.000551489      14155.0     -135.003 
0.00129283      14144.5     -135.013 
-0.000535984      14140.9     -134.990 
0.00152187      14134.0     -135.022 
-0.00307944      14128.8     -134.995 
-0.00171490      14140.4     -134.983 
0.00181426      14155.0     -135.003 
-0.00286907      14147.0     -134.973 
-0.000486445      14146.2     -135.024 
0.000472266      14129.4     -134.997 
0.000425419      14145.4     -134.969 
-0.000467481      14138.2     -134.967 
-0.000681544      14134.2     -134.983 
0.00150208      14145.3     -134.969 
-0.00104739      14142.2     -135.006 
0.000672479      14134.8     -134.984 
0.00129603      14142.5     -134.994 
-0.000677091      14151.0     -135.005 
-0.000235450      14143.9     -135.012 
-0.00104777      14138.2     -134.967 
0.000456099      14143.0     -135.001 
0.00122461      14144.6     -135.013 
-0.000224468      14146.2     -135.024 
0.00219300      14139.1     -134.981 
-0.00101359      14131.1     -135.008 
0.000220718      14141.9     -135.045 
-0.00138334      14140.3     -134.983 
0.000419783      14132.7     -135.011 
0.000423674      14141.1     -134.971 
0.00102226      14150.5     -135.004 
0.000775006      14143.0     -135.001 
-0.000975931      14145.8     -134.970 
-0.00130880      14141.4     -134.968 
0.000205348      14143.4     -135.011 
0.000574849      14150.7     -135.004 
0.00111626      14134.9     -135.005 
-0.00109377      14134.2     -134.983 
0.000371034      14141.9     -135.045 
-0.00108615      14141.6     -135.049 
0.000741469      14134.8     -134.984 
0.000538266      14148.7     -134.998 
0.000732507      14141.1     -134.971 
-0.000195820      14146.2     -135.024 
-0.000554029      14152.7     -135.014 
0.000549817      14146.0     -135.021 
0.000370828      14149.1     -135.030 
0.000375395      14142.5     -134.994 
-0.000881115      14144.2     -135.040 
0.000698626      14130.1     -135.000 
0.000365883      14150.5     -135.005 
0.000711733      14149.1     -134.983 
0.000186376      14143.4     -135.011 
-0.000527193      14130.5     -135.011 
0.000361856      14142.1     -135.058 
-0.000350066      14134.6     -134.988 
-0.000182941      14129.2     -135.001 
-0.00100860      14129.3     -135.001 
0.000505172      14142.5     -134.994 
-0.000348698      14146.2     -134.990 
0.000338437      14149.1     -134.983 
0.000175345      14132.7     -135.011 
0.000675530      14144.0     -134.956 
-0.000502686      14131.1     -135.008 
-0.000174494      14142.7     -135.009 
0.000173327      14146.9     -135.025 
0.000502617      14143.5     -134.977 
0.000342284      14145.3     -134.969 
0.000172765      14155.0     -135.003 
0.000171374      14150.5     -135.005 
0.000333088      14144.6     -135.013 
-0.000170828      14136.1     -135.022 
0.000170314      14138.9     -134.969 
-0.000333254      14150.2     -135.000 
-0.000332762      14152.7     -135.014 
-0.000168663      14140.2     -134.987 
0.000330675      14146.3     -135.009 
0.000332065      14146.9     -135.025 
0.000329600      14142.1     -135.058 
0.000492143      14143.0     -135.001 
0.000166141      14149.1     -134.983 
0.000165225      14139.1     -134.981 
-0.000160667      14152.0     -135.008 
-0.000160884      14140.3     -134.983 
 0.0652106    0.0446338     -153.004 
 0.0158790    0.0633577     -161.350 
 0.0113490    0.0562440     -135.000 
 0.0276801    0.0720098     -146.476 
0.00457411     0.121759      80.4216 
 0.0104006     0.141777      81.7841 
0.00177031    0.0848966     -135.000 
0.00898946    0.0720098     -123.524 
 0.0113672     0.159832      90.0000 
0.00150238     0.654050      113.388 
0.00680921     0.672002      112.728 
0.00261594     0.680086      114.303 
0.00774531    0.0896014     -116.350 
0.00120246     0.690733      112.079 
0.00431552     0.180093      90.0000 
0.00117130     0.709549      111.464 
0.00114275     0.625863      116.565 
0.00111361     0.735213      112.377 
0.00212523     0.581230      116.532 
0.00208250     0.753987      111.791 
0.00102825     0.200353      90.0000 
0.000992198     0.325253      100.636 
0.00285956     0.780402      112.620 
0.00389210     0.563176      117.453 
0.00272612     0.107434     -111.727 
0.00248585     0.345185      100.015 
0.000884601     0.280627      94.1402 
0.00174450     0.805984      113.367 
0.000856375     0.302778      97.5477 
0.00322638     0.101837     -101.476 
0.00370394     0.590559      118.291 
0.00315172     0.832685      114.094 
0.00326511     0.322129      97.0919 
0.000748959     0.369026      102.567 
0.00345952     0.121759     -99.5784 
0.00142672     0.858831      114.796 
0.00132193     0.161111      82.7757 
0.00139370     0.392593      104.727 
0.00134607     0.885454      115.392 
0.00171792     0.300838      93.8616 
0.00126088     0.894329      116.565 
0.00398586     0.120062     -90.0000 
0.00110367     0.627763      120.611 
0.00229574     0.921556      117.128 
0.000547436     0.443026      108.466 
0.000536776     0.145849      74.1761 
0.00105284     0.947854      117.640 
0.000501164     0.259634      90.0000 
0.00145856     0.975239      118.143 
0.00230836     0.121759     -80.4216 
0.000871996     0.279894      90.0000 
0.000468915     0.113549      45.0000 
0.000465201     0.549419      100.466 
0.00175867      1.00269      118.617 
0.000446225     0.572519      102.105 
0.000436058     0.687989      125.545 
0.00123349     0.107434      21.7271 
0.000426890     0.565518      98.1624 
0.000413126     0.672210      126.512 
0.000798192     0.141777     -81.7841 
0.00156730      1.02920      119.051 
0.00155283     0.562998      96.1209 
0.000391508     0.656037      127.565 
0.000374945     0.126477     -71.6725 
0.000734541     0.668581      128.941 
0.000716514     0.280627      85.8598 
0.000364798      1.03918      120.027 
0.00104723     0.121759      9.57842 
0.00213942     0.145849     -74.1761 
0.00103761      1.05677      119.477 
0.000686155     0.540658      92.1476 
0.000347566     0.681013      130.218 
0.000340783     0.561200      94.0638 
0.000334008     0.652947      130.058 
0.000328500      1.06689      120.425 
0.000324821     0.262662      81.2912 
0.000938828     0.694267      131.495 
0.00151284      1.08441      119.883 
0.000889673     0.560155      92.0728 
0.000908097     0.140322      0.00000 
0.000881653     0.540279      90.0000 
0.000589550     0.266484      76.9812 
0.000292710     0.651151      132.478 
0.000557524     0.665001      133.766 
0.000280101      2.45550      113.008 
0.000816550      1.09426      120.768 
0.000539018     0.159832      0.00000 
0.000273497     0.253192      71.5114 
0.00101171      2.46349      113.442 
0.000264511     0.260038      67.4310 
0.000263367     0.650520      135.000 
0.000748301     0.540658      87.8524 
0.00122097      1.11107      120.254 
0.000253807     0.679225      137.373 
0.000250424     0.260826      57.4530 
0.00112637     0.559789      90.0000 
0.000939368     0.180093      0.00000 
0.000246177     0.822239      131.078 
0.000241022     0.638138      138.814 
0.000237178     0.268467      63.4349 
-0.000853068      4.22743      34.5871 
0.000232702     0.609552      138.993 
0.000447686     0.164706     -76.0271 
0.000226693      2.45310      114.064 
0.000227157     0.286260      77.8948 
0.000225492     0.668581      141.059 
0.000651297      1.12862      119.735 
0.000221020     0.850333      131.172 
0.000217808     0.541740      85.7900 
0.000617374      2.46112      114.479 
0.000216546     0.278118      59.6991 
0.000422939     0.640096      141.330 
0.000414707     0.200353      0.00000 
0.000407972     0.291183      73.9938 
0.000204389      1.14625      119.233 
0.000585352     0.863805      132.183 
0.000878090      2.45122      115.106 
0.000198675     0.612215      141.669 
0.000547885     0.161111     -82.7757 
0.000198143      1.15406      117.915 
0.00107442     0.560155      87.9272 
0.000194517     0.219863      0.00000 
0.000376606     0.509625      138.163 
0.000370453     0.300155      53.1301 
0.000373018      1.17200      117.451 
0.000185178     0.310934      45.0000 
0.000185754      1.14925      121.490 
0.000356480     0.240977     -4.82291 
-0.000878590      4.21639      34.3688 
0.000178683     0.540492      141.030 
0.000501741     0.159832     -90.0000 
0.000601871     0.892424      132.274 
0.000175163      1.19001      117.001 
-0.000334745      3.83917     -161.469 
0.000493879     0.481580      138.411 
0.000171208      1.14249      122.855 
0.000171807     0.304887      58.3833 
-0.000170275      3.77849     -165.591 
0.000168250     0.877539      133.164 
0.000166142     0.260423     -4.46202 
0.000165078      1.18095      116.125 
0.000164282     0.312731      50.1592 
0.000574291     0.905663      133.187 
0.000410927      7.26734     -151.387 
0.000160831     0.496341      139.906 
0.000448024      1.20743      116.581 
0.000158884      8.11081      67.9889 
0.000158321     0.344213      35.5958 
-0.000435807      3.76024      179.691 
-0.000557635      3.79315     -165.964 
0.000543720     0.561200      85.9362 
0.000153885     0.280627     -4.14019 
0.000153329      1.18172      123.973 
0.000151982      1.86427      99.2652 
-0.000151373      3.84770     -157.696 
0.000215330     0.319665      90.0000 
0.00106597      8.10352      68.1168 
-0.000391008      10.6833      20.6079 
0.000149145     0.512006      141.366 
0.000287493     0.360880      33.7231 
0.000147020     0.161111     -97.2243 
0.000146333     0.580049      90.0000 
0.000660292      11.8818     -56.2587 
-0.000267399      10.5177      18.7439 
0.000263479     0.468857      140.194 
0.000143152     0.282706     -8.08709 
0.000408456     0.411820     -140.916 
-0.000141358      3.85514     -157.428 
0.000686315      1.88115      98.5568 
0.000407260     0.453478      138.555 
0.000251523      1.22288      74.8466 
-0.000137079      10.5051      18.8840 
-0.000136384      3.85475      174.941 
0.000266672      6.97767     -164.372 
0.000370266     0.181229     -83.5812 
0.000133187     0.340220      40.2586 
0.000133268      1.17217      115.236 
0.000260071      1.02293      85.4981 
-0.000245061      3.83714     -157.316 
0.000128002     0.302778     -7.54773 
0.000252142     0.424884      138.795 
0.000127535      1.13722      113.859 
-0.000419997      10.6212      19.6985 
0.000343645     0.355922      38.1504 
-0.000619727      10.7377     -111.068 
-0.000125208      3.76019      180.000 
0.000433599      8.12168      43.2067 
0.000123355      1.44365      120.831 
0.000376647      7.29330     -151.679 
-0.000121432      2.77582     -119.330 
0.000224021     0.919985      132.355 
-0.000228215      4.30290      168.747 
0.000326226     0.377263      32.0779 
0.000119793     0.985074      95.8148 
0.000119427      1.20439      125.542 
0.000118170     0.427737     -142.628 
-0.000388825      3.85659      174.641 
-0.000222269      3.73993      180.000 
0.000116048      2.44491      113.630 
0.000431071     0.562998      83.8791 
0.000427702      1.47145      121.104 
0.000224831      1.03869      105.633 
0.000806307     0.440329      140.532 
0.000429879     0.906956      131.445 
-0.000112112      2.71833     -157.967 
0.000112198      11.8930     -56.1776 
-0.000110304      4.45975      72.7846 
-0.000797094      10.9163      24.9215 
0.000107853     0.325253     -10.6359 
0.000211248     0.416183     -144.763 
0.000106176      7.07900     -162.741 
-0.000106044      2.76632     -118.978 
-0.000262206      10.4985      18.7794 
0.000387177      11.9093     -56.2298 
0.000103218      1.02868      103.499 
-0.000102126      3.82693     -166.402 
-0.000102289      3.84499     -157.038 
0.000101582     0.189835     -71.5651 
0.000349739     0.456152      142.150 
-0.000652005      2.71107     -158.349 
-0.000336047      4.42630      56.2399 
-0.000332509      4.44040      72.7072 
0.000429852      2.43021      103.809 
0.000188718      1.00027      90.0000 
0.000281721     0.935057      131.519 
0.000187832     0.197181     -65.9711 
-0.000186417      10.6719      20.7428 
-9.54645e-05      9.64023     -114.385 
9.52504e-05      1.14556      114.786 
-0.000180176      3.80422     -177.287 
0.000257464      1.49889      121.343 
-9.36241e-05      4.43238      56.5951 
9.33655e-05     0.394577      30.5153 
-0.000254064      3.82635     -156.919 
0.000325534      8.36589     -16.5299 
-9.00280e-05      2.78406     -118.776 
0.000157886      1.48162      121.750 
8.98202e-05     0.549419      79.5342 
0.000171221     0.404832     -147.105 
0.000316343     0.937714      129.806 
8.84043e-05     0.329594     -14.0995 
0.000315540      8.13646      43.1090 
-8.69627e-05      3.84211     -166.756 
-0.000500211      9.64862     -114.494 
0.000245667     0.387976      34.5199 
8.58943e-05      7.30293     -151.539 
0.000240620      8.40170      68.9313 
0.000159374      7.27195     -158.378 
0.000200586      1.08817      110.422 
8.42196e-05     0.553458      77.4712 
8.41759e-05      1.00047      88.8396 
8.33019e-05     0.228306     -52.0755 
-0.000155765      4.58947      59.6323 
-8.23900e-05      10.6281      19.8013 
0.000541986     0.922240      130.611 
8.19362e-05      11.6564     -55.2736 
0.000156974     0.950322      130.709 
0.000140552      11.9205     -56.1489 
7.95653e-05      1.87824      97.9456 
7.93115e-05      1.10296      112.395 
-7.87979e-05      10.6412      20.9221 
0.000179144      8.66912      156.331 
0.000308653      7.26478     -158.521 
-0.000148369      3.86184     -166.825 
7.73462e-05     0.269397     -41.9516 
7.73602e-05     0.888456      144.175 
0.000273330     0.394577     -149.485 
0.000155616     0.444008      144.215 
0.000292533      9.45284     -80.3762 
0.000206765      7.28513     -151.463 
7.65543e-05      8.68768      156.384 
-7.58350e-05      4.19968      34.5249 
7.49663e-05      1.72249      102.735 
7.48681e-05     0.568616      79.8913 
7.49497e-05      1.09540      111.415 
0.000137483      7.08481     -162.590 
-0.000138539      4.10253      49.9489 
0.000195034      8.94538      51.0812 
7.30578e-05     0.427737      142.628 
-0.000196309      3.81845     -157.199 
0.000225716      8.09599      68.2499 
-0.000131956      4.43220      55.6588 
0.000191196      3.77601      135.644 
0.000136050      1.70736      103.548 
-7.04834e-05      2.75656     -118.609 
7.04846e-05      1.29353      129.350 
0.000126354      2.41054      103.924 
6.92974e-05     0.384386      38.6598 
0.000197002     0.459977      145.636 
-6.91177e-05      10.6303      21.0616 
6.91148e-05      1.00047      91.1604 
0.000133940      9.38479      149.662 
-0.000221053      3.78308     -177.579 
0.000239658      3.57543      98.0349 
-6.80955e-05      3.95436     -172.443 
6.73898e-05      8.39444      69.0603 
0.000126605     0.558204      75.4407 
6.66911e-05     0.269397     -48.0484 
0.000125551      8.39015     -16.6197 
-0.000128213      3.86457     -162.216 
-0.000333807      10.8986      24.9647 
0.000238986      8.41336      69.1096 
6.53004e-05      7.54109     -150.445 
6.48021e-05      11.6675     -55.1948 
-6.44367e-05      4.57926      59.8510 
-6.43936e-05      4.20498      34.1410 
-0.000122064      10.7304     -110.967 
-0.000124123      3.76281     -177.863 
0.000121911      8.39411     -19.3420 
6.38233e-05      1.08152      109.453 
0.000175005     0.476838      147.010 
-0.000118179      10.0420     -145.140 
0.000122700      9.42961      149.684 
6.22488e-05     0.283342     -45.0000 
-0.000119356      10.6184      21.1991 
6.15610e-05     0.876751      145.249 
0.000117389      9.45612     -80.2596 
0.000111117      2.40574      103.455 
0.000117531     0.421988      31.4006 
-6.01573e-05      2.64404     -161.020 
-5.98948e-05      2.77436     -118.409 
0.000108568      8.76183      51.1149 
-5.95333e-05      4.45380      73.0335 
0.000113876      1.50953      121.999 
0.000219371      1.07494      108.435 
-0.000164419      10.5989      23.2252 
5.83819e-05     0.297458     -42.3417 
0.000109999     0.909182      129.642 
-5.75778e-05      4.56912      60.0707 
-5.72395e-05      2.66250     -161.157 
0.000161397      8.45722      160.668 
0.000401120      10.2870     -58.5976 
0.000301081      9.47417      149.700 
-0.000101507      3.88387     -162.307 
-5.50580e-05      4.42718      55.3079 
0.000105660     0.312731     -39.8408 
-0.000299085      2.65602     -161.570 
-0.000104115      2.76478     -118.040 
0.000102572      10.9045     -53.8028 
-9.99273e-05      3.78979     -156.684 
-0.000102215      10.7115     -111.006 
-5.37252e-05      3.24200      42.2514 
0.000147221      8.40059     -19.4676 
0.000150115     0.904347      144.899 
-5.34803e-05      10.6076      21.3393 
5.32061e-05     0.438758      30.0730 
0.000100261      10.1300      99.2028 
5.28851e-05      11.6509     -55.1380 
5.23412e-05      8.93021      51.0026 
-5.21065e-05      4.21225      52.9137 
5.19814e-05     0.325575     -42.4780 
5.15208e-05      7.66943      28.5008 
9.67933e-05      10.1533      99.2973 
9.97831e-05     0.456404      28.7984 
5.05092e-05     0.449253      147.690 
5.03048e-05     0.384685     -152.085 
5.00876e-05      1.58635      112.999 
-9.60101e-05      10.5961      21.4812 
-9.62688e-05      3.24400      41.7557 
-4.83685e-05      2.66768     -146.310 
-4.83018e-05      4.10501      50.3326 
-4.82221e-05      3.78230     -177.874 
9.31871e-05      11.6398     -55.2168 
9.34963e-05      6.75651     -126.091 
4.77573e-05      9.06508     -80.4753 
4.76123e-05      2.34336     -21.5289 
4.70780e-05     0.465536      25.4911 
4.68373e-05     0.466502      149.020 
4.69101e-05     0.340220     -40.2586 
4.64874e-05      8.94297      50.9017 
4.64074e-05      1.06870      107.404 
4.63556e-05      1.59689      112.081 
-4.59394e-05      10.2476      177.763 
4.57669e-05      8.47563      160.712 
-4.55052e-05      10.6099      23.0853 
4.53521e-05      7.67798      28.3008 
4.52694e-05      7.94291      33.8102 
4.47449e-05      12.7321     -53.2375 
-4.45610e-05      3.75039      4.28001 
-4.44153e-05      4.21569      53.2933 
4.42920e-05      8.42061      68.9808 
-4.42904e-05      3.22892      41.9951 
! Tentative model.
! Flux (Jy) Radius (mas)  Theta (deg)  Major FWHM (mas)  Axial ratio   Phi (deg) T \
! Freq (Hz)     SpecIndex
-4.48283e-05      10.0586     -145.204 
