! Center RA: 12 21 31.69052,  Dec: +28 13 58.50011 (2000.0)
! Established model.
! Flux (Jy) Radius (mas)  Theta (deg)  Major FWHM (mas)  Axial ratio   Phi (deg) T \
! Freq (Hz)     SpecIndex
  0.134369      0.00000      0.00000 
 0.0438124    0.0202604      180.000 
 0.0214356    0.0202604      90.0000 
0.00139488    0.0397705      90.0000 
0.00326061    0.0446338      63.0042 
0.00299080    0.0633577      71.3505 
 0.0115424    0.0896014      63.6495 
 0.0171042    0.0286526     -135.000 
0.00377642    0.0446338     -153.004 
 0.0134165     0.107434      68.2729 
 0.0249316    0.0446338     -116.996 
0.00556348     0.302778      97.5477 
 0.0249434     0.101837      78.5245 
 0.0125857     0.282706      98.0871 
0.00630806     0.280627      94.1402 
0.00560053     0.121759      80.4216 
0.000535313     0.260423      94.4620 
0.00211096     0.220795      95.2649 
0.00127937     0.349279      103.290 
0.000471055     0.201375      95.7743 
0.00113172     0.240977      94.8229 
0.00165047     0.204262      101.227 
0.00254087     0.373757      105.487 
0.000234246     0.260423      85.5380 
0.000463256     0.240790      138.411 
0.000228344     0.240124      90.0000 
0.00109726     0.256296      141.419 
0.000217785     0.266484      76.9812 
0.000622317     0.271765      72.8159 
0.00443714     0.398226      107.547 
0.000414238     0.271820      143.984 
0.000203902     0.223431      100.253 
0.000202788     0.260826      147.453 
0.000395885     0.234065      110.062 
0.00209737     0.250509      151.362 
0.000198869     0.227911      105.272 
0.000565807     0.284207      140.679 
0.000719715     0.253192      71.5114 
0.000195265    0.0720098      56.4755 
0.000193191     0.161111      82.7757 
0.000699565     0.278155      68.9736 
0.00280642    0.0720098      33.5245 
0.000191633     0.250509      118.638 
0.00108859     0.141777      81.7841 
0.000374070     0.260038      112.569 
0.000185812     0.181229      83.5812 
0.000709172     0.268467      116.565 
0.00162349     0.260038      67.4310 
0.00315604    0.0720098     -123.524 
0.00122124     0.297458      137.658 
0.00150845     0.145849      74.1761 
0.000650108     0.164706      76.0271 
0.00111174     0.278118      120.301 
0.000165823     0.323277      68.1986 
0.000480355     0.241454      65.5855 
0.00163393     0.260038      157.431 
0.000162080    0.0633577      18.6495 
0.000160179     0.341468      69.4145 
0.00173168     0.417588      106.709 
0.00160379     0.300155      143.130 
0.000154549     0.349107      66.3001 
0.000860163     0.223834      63.5208 
0.000582086     0.367749      67.5690 
0.00142806     0.250509      61.3621 
0.00197420     0.295127      118.390 
0.000415075     0.404795      110.283 
0.00125614    0.0828082      14.1622 
0.00144930     0.126477      71.6725 
0.000269356     0.394056      66.0707 
0.000265524    0.0896014      26.3505 
0.000740498     0.402700      63.4349 
0.000638597     0.431906      103.360 
0.000845728     0.233573      59.0678 
0.00266319    0.0848966     -135.000 
0.000369672     0.411965      112.829 
0.00108148     0.288454      123.649 
0.000847845     0.446997      100.348 
0.000522706     0.394056      113.929 
0.000228312     0.438758      59.9270 
0.000355033     0.402700      116.565 
0.000580219     0.260826      57.4530 
0.000160269     0.141777      98.2159 
0.000753440     0.140322      90.0000 
0.00120412     0.354273      73.6379 
0.000156445     0.334882      72.6613 
0.000736141     0.243395      99.4042 
0.000739950     0.121759      99.5784 
0.000147231     0.172194      144.578 
0.000287194     0.178866      153.327 
0.00131810     0.373757      74.5128 
0.000140207     0.247514      75.9638 
0.00176810     0.197181      155.971 
0.00110082     0.120062      90.0000 
0.000133526     0.247514      104.036 
0.000131056     0.253192      108.489 
0.000739131     0.278155      111.026 
0.000208466     0.379669      71.5651 
0.000125048     0.234065      69.9384 
0.000354430     0.398226      72.4528 
0.000680953     0.404795      69.7174 
0.000445293     0.286050      114.817 
0.00102687     0.215843      158.162 
0.000326823    0.0896014     -153.650 
0.00176039     0.100252     -143.216 
0.000778688     0.268467      63.4349 
0.00179820     0.447333      63.3920 
0.000208184     0.369026      77.4333 
9.97582e-05     0.362375      83.6991 
0.000191883     0.380236      93.0544 
0.000274801     0.381773      95.9795 
0.000179835     0.384412      98.9843 
0.000399242     0.404436      98.5360 
8.37605e-05     0.188432      148.019 
0.000738390     0.284207      129.321 
0.000508522     0.483985      60.2551 
0.000796828     0.205897      151.006 
7.83946e-05     0.411965      67.1714 
0.000559635     0.412159      119.085 
0.000268267     0.386554      68.7149 
0.000516057     0.424483      98.1301 
7.19650e-05    0.0600310      0.00000 
0.000470162     0.244605      54.9936 
0.000652733    0.0802914      0.00000 
0.000796806     0.421988      121.401 
0.000193676     0.466942      99.9013 
0.000372087     0.283342      135.000 
6.46213e-05     0.216445      56.3099 
0.000341672     0.510656      59.4405 
0.000300626     0.490508      101.740 
0.000290390     0.134233      63.4349 
0.000172467     0.322315      60.2717 
0.000649771     0.228306      52.0755 
0.00124810    0.0998015      0.00000 
0.00136092     0.199903      53.0871 
5.88030e-05     0.509625      101.293 
0.000952586     0.449253      122.310 
0.000113143     0.513977      103.509 
0.000671347     0.459977      124.364 
0.000369093     0.538618      105.101 
5.49405e-05     0.297458      132.342 
0.000834760     0.128090     -141.183 
5.10094e-05     0.350038      59.0362 
0.000412610     0.212689      48.7190 
0.000373229     0.563425      106.480 
0.000578185     0.172194      54.5784 
0.000738103     0.538451      58.6802 
0.000227348     0.332828      57.2415 
0.00101622     0.841065      118.394 
0.000522871     0.427819      100.817 
0.000652739     0.312731      140.159 
0.000204853     0.407936      101.351 
8.46677e-05     0.594563      109.693 
0.000750486     0.120062      0.00000 
0.000559863     0.601418      111.443 
0.000715369     0.144435     -146.227 
0.000712884     0.868561      118.934 
0.000281825     0.344213      54.4042 
0.000635360      1.05749      105.348 
0.00226340      2.33600      111.067 
8.42472e-05     0.144435      56.2274 
0.000368365      1.04433      106.703 
0.000236578      1.69542      107.144 
0.000305011     0.895107      119.423 
0.000984477     0.141777     -8.21587 
0.000832732     0.528203      60.5580 
6.40143e-05     0.950432      120.351 
0.000247275     0.609116      113.217 
0.000656678      1.67607      107.348 
0.000328980     0.977152      120.760 
3.25904e-05      1.35540      111.636 
0.000187669      1.37425      111.325 
0.000122574     0.161670     -150.222 
9.20213e-05      1.05010      107.723 
6.06175e-05     0.569504      108.435 
0.000564306     0.161670      60.2221 
0.000319487      1.29890      99.7453 
0.000449780     0.355922      51.8496 
5.96391e-05      1.39984      111.807 
0.000949118     0.156126     -140.265 
0.000115360      1.41867      111.503 
0.000141379     0.576231      110.346 
0.000473092      1.29574      98.8950 
2.86160e-05      1.03728      109.130 
8.36886e-05      1.41137      110.738 
2.78627e-05     0.617068      114.882 
0.000439134     0.967319      119.767 
0.000681143      1.43034      110.451 
0.000180769     0.653108      117.360 
0.000375410      1.07195      104.017 
7.80912e-05      1.02511      110.571 
0.000696493      1.65745      107.549 
0.000464911      1.10635      139.373 
0.000446033     0.544027      107.085 
0.00221356      4.90199      116.149 
0.00178767      1.12180      140.047 
0.000101415      2.15059      108.429 
2.54759e-05      3.76288      121.753 
0.000318153     0.438758      120.073 
0.00119363      3.75225      121.490 
0.00141298     0.885686      118.324 
0.000373173     0.423858      109.333 
0.000576116     0.161111     -7.22432 
0.000811884      2.15708      108.939 
0.000649017     0.662301      118.859 
9.33504e-05      2.02487      110.228 
0.000257920      1.44202      109.453 
0.000126285      1.07704      105.063 
0.000350354      2.03196      110.764 
2.26274e-05      1.03212      111.585 
0.000874689      1.27573      99.0357 
0.000175355      1.01401      111.990 
0.000216703      1.63815      107.763 
0.000279501      2.34336      111.529 
0.000380985     0.957421      118.714 
0.000276068     0.172194     -144.578 
0.00197116     0.184432     -12.4530 
7.90898e-05      1.78137      118.865 
2.06562e-05      1.62304      112.451 
9.71873e-05      1.38175      112.108 
0.000320234      1.61569      111.811 
3.93780e-05      4.97108      109.020 
0.000333675      1.65168      106.904 
0.000114211     0.545937      61.6032 
0.000324728     0.340220      49.7414 
0.000464419      1.44864      110.181 
0.000696602      4.99024      108.944 
0.000133061     0.429314      62.1808 
0.000301389     0.327950      142.343 
0.000121363      1.39244      102.448 
0.000151163     0.519084      105.684 
0.000128657      2.36222      111.349 
1.87212e-05      1.73346      106.756 
0.000860913      3.74389      111.629 
0.000134781      1.09162      103.759 
0.000119381     0.197181     -155.971 
6.86316e-05      1.38950      112.882 
0.000334744     0.554452      64.3366 
0.000346208      2.06522      111.597 
0.000223194      2.36967      111.805 
0.000486824     0.429314      117.819 
0.000104623      1.79124      119.432 
0.000267893      1.72794      106.137 
1.72246e-05      1.43754      111.207 
3.28411e-05     0.995250      112.427 
0.000189272     0.550320      109.102 
0.000142681      2.37699      112.241 
3.12892e-05     0.297458      47.6583 
3.15580e-05      2.34104      109.980 
0.000102790      2.17554      108.772 
0.000378286      1.00315      113.497 
0.00120155      1.63230      107.110 
3.10245e-05      1.60827      111.141 
4.43828e-05      1.40750      112.573 
0.000155928     0.912809      118.798 
9.86254e-05      1.38821      101.632 
0.000393504      1.59689      112.081 
0.000113730      1.08715      102.760 
7.32991e-05      2.33419      109.513 
7.23864e-05     0.215843     -158.162 
7.45227e-05      2.38473      112.692 
0.000223931     0.564587      67.0814 
0.000171182     0.325575      47.5220 
0.000137147     0.930615      118.197 
0.000220099      2.41825      113.383 
0.000895299      3.74171      121.226 
0.000711567     0.672314      120.372 
-0.00144866      3.75537      124.366 
0.000321191      2.16374      109.447 
1.39074e-05      2.32775      109.060 
4.03426e-05     0.300155      180.000 
0.000209663      1.45575      110.929 
0.000444047      1.25899      100.057 
0.000127631      2.34620      108.904 
0.000269789      2.07248      112.098 
2.67934e-05      1.12180      129.953 
0.000100847     0.141141     -135.000 
0.000122516      1.13443      130.708 
2.58758e-05      2.44491      113.630 
0.000261229     0.344213      144.404 
2.57653e-05      1.40417      100.655 
0.000148634     0.319665      180.000 
0.000285611      4.77639      116.348 
0.000385998      2.45310      114.064 
6.20531e-05      1.40070      99.8711 
0.000324956     0.524694      107.735 
7.02021e-05      1.10618      102.537 
8.17392e-05      1.39737      99.0526 
0.00102604      3.72507      111.744 
0.000212989      2.33971      108.435 
0.000130224     0.134233     -116.565 
0.000319928     0.572781      65.2144 
5.35546e-05      2.18215      109.276 
0.000257437      1.14775      131.475 
0.000118255      1.39443      98.2609 
0.000907302     0.227911     -15.2717 
0.000141471      5.00940      108.869 
7.12251e-05     0.266484     -166.981 
0.000129760      1.47469      110.648 
0.000439165      1.24353      101.134 
5.68934e-05     0.903572      117.714 
0.000277747      2.47957      114.285 
0.00128473      1.39166      97.4354 
0.000100069      2.03896      111.277 
0.000280245      1.57124      111.664 
0.000293810      2.17031      109.932 
9.93689e-05     0.126477     -108.327 
4.54550e-05      5.02544      110.743 
0.000875648      2.46112      114.479 
0.000299827      2.33361      107.981 
0.000190607     0.320306     -176.373 
7.66629e-05      5.00289      108.650 
2.54717e-05     0.563176      62.5472 
8.97794e-06      1.10196      101.509 
2.59278e-05      1.74741      105.952 
0.000187897     0.360880      146.277 
0.000141961      1.48196      111.381 
0.000354470      1.16076      132.196 
2.30388e-05     0.420241      115.375 
0.000170536     0.302778     -172.452 
0.000237443      2.04640      111.805 
0.000170536      5.00720      110.822 
0.000352010     0.581230      63.4680 
0.000235587     0.141777     -98.2159 
4.68800e-05      1.75559      104.505 
0.000250276      3.72504      121.381 
0.000274058      4.78542      116.565 
0.000102405      5.02138      108.578 
0.000623512      1.23978      100.215 
7.35121e-06      1.76077      105.144 
0.000242257      1.77521      104.342 
0.000189037     0.368782      49.3734 
0.000225656     0.350038      149.036 
0.000147158      2.32744      107.506 
0.000219744      2.17730      110.434 
0.000521727      3.71492      121.125 
0.000284821      5.01520      108.367 
4.36788e-05      1.57883      112.348 
0.000127685     0.557279      111.071 
1.22815e-05     0.572799      60.7486 
4.28498e-05      1.09824      100.511 
3.15614e-05      1.76365      119.182 
0.000105358      1.48918      112.080 
3.05258e-05      1.01140      114.549 
0.000138046      2.35289      107.828 
1.25303e-05     0.209153     -16.6796 
0.000225533      4.98827      110.905 
0.000196117     0.140322     -90.0000 
0.000379894      1.17446      132.929 
4.84612e-05     0.377263      147.922 
9.39220e-06      1.09472      99.4688 
0.000238970     0.590559      61.7091 
0.000317224      1.12468      141.501 
9.28444e-06     0.531217      109.817 
0.000186110      2.34677      107.357 
0.000172296      4.79451      116.782 
9.74648e-05      5.03443      108.295 
8.78866e-06     0.322129     -172.908 
-0.000403677     0.950648      98.4883 
0.000115237      2.18419      110.913 
0.000114374     0.465536      64.5089 
7.14137e-05     0.340529     -176.589 
2.94508e-05      1.94236      118.951 
0.000150798      1.23647      99.3251 
6.34823e-05      2.44270      114.676 
0.000209861      3.70776      121.544 
1.10277e-05      1.56387      110.974 
9.11420e-05      3.69876      111.568 
7.19652e-06     0.366905      150.604 
6.94566e-05      3.70854      119.745 
-0.000153261     0.868284      97.9480 
0.000134732     0.591236      113.962 
6.85270e-06      1.25573      99.1809 
6.48752e-05      1.55700      110.304 
0.000145550      1.25265      98.2660 
6.28922e-06      1.78034      104.973 
-0.000175109      1.28810      115.759 
3.68052e-05      2.19150      111.408 
-9.06642e-05     0.972963      99.4551 
-6.34082e-05     0.700075      59.0362 
3.02427e-06     0.384386      51.3402 
2.94699e-05      3.71840      121.811 
-5.77734e-06      2.00309      104.447 
0.000852952      10.9314      148.696 
-0.000327015      5.24385      160.393 
0.000619921      3.04139     -9.45767 
-0.000290834      3.65888      27.6792 
0.000671061      4.66818      54.0640 
-0.000572169      5.26294      160.467 
-0.000743319      7.11539     -109.197 
0.000781523      5.69590     -10.5209 
0.000280870      5.07220     -71.8465 
7.20441e-05      10.6413      23.4792 
0.000909627      10.6336      23.3828 
0.000328248      7.53247      93.3467 
0.000120709      3.02140     -9.52081 
0.00112225      4.88173     -66.5875 
-0.000324585      11.4154      41.8772 
0.000256492      11.8874     -54.5191 
-0.000537997      6.61545      20.8999 
-0.000239397      8.67688      27.4537 
0.000258707      10.4363     -77.2688 
0.000359454      10.1236     -123.315 
-0.000245525      3.67617      27.5379 
0.000129918      10.6494     -23.5792 
0.000410096      6.17238     -37.7601 
0.000702831      5.07832     -71.6373 
-0.000623671      9.10694     -102.816 
-0.000638219      13.8784     -133.423 
-0.000126732      10.8560      42.6834 
0.000360434      7.34346      69.0945 
0.000238344     0.921540      155.668 
-0.000304028      7.96653      155.687 
0.000288696      3.65689     -16.8546 
0.000178874      1.46963      165.027 
-6.22195e-05      8.76067     -34.9615 
-0.000341128      8.36680     -47.6171 
0.000662405     0.544027     -107.085 
-0.000179881      7.12208     -109.351 
0.000280006      7.39373      151.219 
0.000442840      9.68445     -36.3469 
0.000278112      10.6673     -23.5373 
0.000282993      4.41226     -22.3823 
0.000110104      5.86337     -5.08821 
0.000119030      10.4561     -77.2932 
-5.99630e-05      8.77729     -34.8857 
-0.000220556      11.4139      42.0155 
-0.000380207      3.27168     -4.90770 
0.000115971      7.12372      74.3622 
-0.000271441      6.12045      89.4380 
-0.000215723      9.35592     -22.2349 
0.000325991      10.2941      103.253 
-0.000167151      3.14946      118.024 
-0.000108549      12.5387      51.9978 
0.000269697      2.23651     -47.1754 
0.000167711      9.50305     -140.379 
0.000317704      10.4319     -77.3773 
-0.000320464      9.84433      30.5233 
-5.66693e-05      8.79391     -34.8102 
-0.000317545      7.94807      155.627 
0.000211188      11.8709     -54.4623 
0.000105574      3.91485      164.901 
5.58333e-05      8.00111      91.0049 
0.000263751      7.12901      74.2112 
-0.000108937      12.5512      51.9249 
0.000106912      7.55159      93.1899 
0.000158204      5.18782      162.959 
0.000155057      1.48436      165.957 
-5.41271e-05      11.7329      34.5834 
-5.39137e-05      6.12068      89.2484 
-0.000104690      3.74604     -12.3296 
0.000155836      8.17525      157.262 
0.000102491      9.96959     -28.5172 
5.30981e-05      7.08248      163.764 
-5.28493e-05      7.46163      169.653 
0.000153047      9.48745     -140.301 
-0.000102189      8.84327     -34.5881 
0.000102587      9.46384     -121.608 
-0.000102261      6.90074      145.989 
-5.23395e-05      10.1221     -40.9961 
-0.000102253      3.15903      118.349 
-0.000152889      9.13120     -102.911 
0.000101495      7.07685      163.921 
-0.000100777      13.5832     -46.7886 
-5.15340e-05      2.51179      5.48577 
5.13940e-05      7.35044      68.9524 
-0.000100631      7.43808      169.778 
-5.08464e-05      11.9849      121.487 
-5.02894e-05      1.39677     -103.230 
-5.01863e-05      8.35315     -47.7197 
-9.90051e-05      14.1872      43.9135 
4.98263e-05     0.932329      157.274 
4.96758e-05      4.39422     -22.4791 
4.95876e-05      3.35156      44.2743 
4.94688e-05      10.1125     -123.220 
4.91422e-05      10.9592      148.661 
4.89666e-05      7.95821     -24.1797 
-0.000870366      10.9759     -25.8170 
-0.000231364      3.86254      2.08196 
-0.000409188      3.88211      1.77227 
-0.000360697      8.93183     -23.3515 
-0.000733499      9.54065     -119.791 
0.000535365      14.2153     -136.082 
0.000375216      10.2431     -163.088 
0.000729586      11.8361     -54.6988 
-0.000208563      3.04885     -162.038 
-9.49250e-05      11.6228     -51.2166 
-0.000185148      4.36823      65.6628 
-4.83537e-05      10.7267      18.7037 
0.000131660      12.5019     -50.4529 
-0.000294488      9.65893      55.2877 
-4.62018e-05      6.35206     -34.7414 
-4.61120e-05      9.10072     -166.788 
4.59938e-05      7.80505      6.17595 
-8.89004e-05      8.52328     -178.386 
-0.000129720      10.7141      18.8410 
8.83385e-05      10.7504     -140.208 
0.000277160      9.00815     -2.41575 
-8.62236e-05      9.40228      156.162 
-4.41041e-05      8.75583      99.3315 
-0.000323221      10.2122     -92.8050 
-4.37026e-05      6.11885     -80.7837 
-4.36730e-05      9.49111      156.136 
-0.000121957      10.1202      168.022 
-0.000160908      9.14480     -166.722 
0.000240031      6.02139     -27.9255 
0.000445459      11.7786      147.551 
0.000278457      6.98095     -82.4273 
-0.000445864      11.8601     -55.7207 
-0.000189914      10.1405      89.4361 
-0.000121548      11.2108      137.460 
0.000113860      10.0417     -28.5568 
0.000120889      3.81822     -45.0000 
-0.000223720      6.82463     -150.504 
-7.97019e-05      2.24525      70.7597 
4.16484e-05      9.19873     -16.9361 
-0.000410812      8.75913      99.4623 
0.000267709      10.0709      109.731 
0.000119719      9.99360     -175.292 
-0.000183198      8.64925      6.10579 
0.000376951      7.05570     -123.553 
-0.000178553      13.5117     -46.7395 
0.000445411      13.5955      136.489 
0.000175216      5.58621      135.141 
-0.000114712      4.35789      65.3193 
-0.000114243      12.4494      133.437 
-3.98171e-05      12.4844      53.5351 
0.000244072      4.59758      154.217 
3.97347e-05      10.0741      16.4912 
-0.000110345      8.50360     -178.250 
-3.95196e-05      8.48223     -25.1164 
0.000362692      9.15911      109.384 
0.000345838      9.35987      16.3820 
0.000176947      9.97341     -175.283 
0.000372154      14.2012     -136.141 
-0.000310824      10.7075      18.7384 
7.50312e-05      11.0571     -40.0834 
3.86627e-05      9.73381      130.335 
-0.000281158      12.5000      53.5882 
0.000189636      12.4610     -50.5346 
3.79425e-05      5.25748      9.85355 
-0.000243788      10.1403      89.5463 
-3.74343e-05      8.45529     -25.0504 
0.000186245      8.74050     -18.2670 
0.000312453      11.5529      127.545 
-0.000412584      12.4361     -143.371 
-0.000217774      11.7540     -38.6450 
-6.83686e-05      11.3509     -51.7975 
0.000103494      9.72070      130.244 
6.75684e-05      5.46041      90.8425 
-6.84179e-05      9.42013      156.210 
-0.000190838      9.16379     -166.750 
-0.000100026      8.54207     -27.1638 
3.58090e-05      9.35438      16.2674 
-0.000168667      6.83234     -150.735 
6.78538e-05      3.63199     -101.440 
5.84727e-05      11.6544     -44.1652 
-3.53487e-05      6.45463      137.511 
9.81782e-05      3.23109      111.799 
-0.000126639      11.2048      56.2812 
-0.000118158      6.83101     -102.859 
-6.29309e-05      12.4518     -143.424 
9.82737e-05      9.76146      50.5711 
0.000126681      11.1199      154.542 
-0.000198817      7.64026      16.1085 
0.000210514      11.3605     -140.930 
0.000263005      10.0641      109.623 
3.40231e-05      12.4734     -50.4654 
3.38274e-05      10.0554      16.5227 
-9.50216e-05      4.34978      65.5528 
0.000152234      11.8541      149.368 
-9.72332e-05      8.42836     -24.9839 
0.000124167      5.36583      163.324 
0.000236585      11.0997      61.1252 
6.49949e-05      12.7161      47.9324 
3.29587e-05      12.2318      42.3496 
3.26696e-05      7.30758      101.527 
-6.17660e-05      6.46958      137.632 
3.22076e-05      11.6398     -44.2347 
-5.95416e-05      6.95139     -19.3210 
-8.98578e-05      6.02354     -58.5772 
0.000179396      11.7352     -51.7825 
-5.99489e-05      9.66974      87.3936 
-5.73481e-05      9.33905     -43.0888 
-3.16210e-05      12.4360      133.372 
6.21797e-05      11.8756      131.314 
5.95683e-05      12.5400     -48.5564 
3.13083e-05      3.25464     -103.860 
3.11599e-05      9.59555      130.096 
-3.07827e-05      9.50964      156.186 
0.000133549      5.20131      163.238 
-0.000166562      13.0025     -40.8204 
3.06354e-05      11.0856     -40.0961 
-0.000141373      12.4641      133.373 
0.000117605      9.95396     -175.274 
-0.000454022      11.8716     -55.6399 
-8.38149e-05      6.55839     -22.0278 
0.000142400      3.76067      179.085 
5.80132e-05      9.74926     -173.166 
-0.000110716      1.38391     -37.3545 
0.000142852      13.1211     -39.8052 
3.00402e-05      5.96923      140.714 
-0.000108215      8.48474     -178.110 
0.000185532      9.72057      50.6764 
2.96099e-05      9.74926      130.258 
2.95320e-05      3.25956     -104.206 
0.000137610      8.26592      97.2282 
-0.000137567      13.5256     -46.6770 
0.000281833      11.9171      131.393 
0.000130589      9.49121      33.2227 
5.52438e-05      6.33446      168.160 
-0.000103629      8.44673     -24.9259 
2.87963e-05      12.2095      41.8137 
0.000105801      10.8514     -57.1891 
2.87064e-05      12.7297      47.8647 
-2.85617e-05      12.6511     -138.398 
5.50077e-05      3.25745      111.997 
-8.08912e-05      4.34144      65.7962 
0.000263131      11.4733      120.948 
2.81159e-05      9.05191      20.8373 
-0.000134266      7.16813     -109.903 
0.000664906      11.1832     -23.9508 
-0.000258429      13.2915     -130.544 
5.29250e-05      12.2978     -123.792 
-0.000238015      11.3005     -45.6457 
0.000179318      10.3230      103.442 
7.99437e-05      12.2111      41.6794 
0.000277968      9.93377     -175.264 
0.000316206      11.4977      59.2421 
-0.000142521      6.44146      137.639 
0.000167634      2.28002     0.999463 
-7.63725e-05      12.8909     -140.037 
-0.000329036      11.8434     -55.6655 
-0.000211275      8.11958      31.8129 
-0.000158335      12.6360     -138.337 
2.67567e-05      13.1055     -39.8619 
7.63145e-05      8.26340      97.0889 
-2.65542e-05      9.80689      61.7643 
-0.000278071      11.2887      40.6897 
0.000118895      12.3142     -47.3707 
-8.18737e-05      9.18352     -166.779 
-0.000142197      9.66887      87.5091 
-7.64711e-05      8.17545      152.936 
-2.63327e-05      11.3634     -51.7172 
-5.19803e-05      9.50178      156.293 
7.59155e-05      5.82124      1.18180 
0.000323607      13.0780     -39.8510 
5.15864e-05      12.7701      47.6649 
-0.000114201      8.01831      155.224 
-2.59499e-05      12.8920     -137.073 
8.92473e-05      11.1161      126.806 
-5.05072e-05      11.2877     -26.7473 
2.56799e-05      7.07920     -170.402 
-7.11852e-05      12.8421     -39.5660 
-0.000188401      5.62873      176.744 
2.55549e-05      9.34115      16.4158 
-0.000310373      10.6883      18.7733 
4.84305e-05      9.76938     -173.180 
7.28684e-05      9.33566      16.3009 
0.000187004      11.5648      127.622 
-4.93967e-05      7.66197      109.998 
-7.26853e-05      11.7097     -38.6913 
4.81883e-05      7.28369      101.403 
-4.61620e-05      12.4507      133.308 
2.48637e-05      5.93323     -109.290 
0.000376982      8.33148      146.160 
7.33760e-05      11.6235     -151.757 
-4.84435e-05      8.76249      99.5930 
2.47361e-05      14.0568     -135.000 
-4.77902e-05      9.47509      156.356 
-0.000135675      4.68620     -13.3219 
-7.25098e-05      10.4444     -24.5543 
-0.000207428      7.16126     -109.751 
2.45440e-05      12.7832      47.6003 
-0.000139682      11.9364      121.292 
0.000138082      12.1960      41.7427 
-0.000117355      13.5676     -46.6135 
0.000209967      10.8234     -57.2211 
-0.000243721      9.79867      61.6039 
0.000329713      11.3439      146.871 
-2.41504e-05      12.8639     -137.080 
-2.41524e-05      10.8492      70.3958 
2.41059e-05      9.88040      17.5529 
0.000176462      14.0430     -135.056 
0.000147121      10.3884     -16.9022 
-0.000460181      11.2786     -26.6554 
0.000136941      12.8255      47.5276 
6.42847e-05      3.78018      179.090 
0.000128637      13.6102      136.548 
0.000329199      11.6064     -151.712 
-2.35138e-05      8.83361     -130.870 
0.000156400      10.3277      103.552 
4.61755e-05      11.3118     -150.444 
2.34427e-05      10.2755     -163.256 
-2.34314e-05      11.2389      137.451 
-2.33670e-05      12.8777     -137.014 
0.000215419      14.2128      135.171 
-4.57233e-05      6.97051     -19.2659 
-0.000334216      10.4260     -24.6006 
4.30897e-05      11.1439      126.829 
-4.51993e-05      9.67043     -108.321 
0.000378941      9.91433     -175.255 
0.000327267      9.18700     -145.378 
2.30133e-05      4.43132     -175.863 
5.74904e-05      10.9043      152.589 
-2.29225e-05      10.1930     -92.9243 
-2.28448e-05      11.6660     -38.7358 
-0.000203942      3.31675      149.565 
-0.000105136      10.9488     -25.7677 
-4.48969e-05      12.8343     -136.957 
-4.34638e-05      8.92460      134.182 
-2.27651e-05      1.41232     -37.5092 
4.40927e-05      8.29036      97.4840 
-6.54638e-05      10.0936      122.211 
-0.000179396      7.62913      109.765 
-0.000262027      6.84227     -150.587 
0.000159958      10.8863      152.539 
-4.41630e-05      9.52034      156.342 
0.000445836      11.2432     -63.7069 
-6.34364e-05      6.82653     -102.693 
6.25710e-05      9.41059     -94.6331 
-0.000123569      11.6228     -38.7834 
-2.22147e-05      8.78246      99.5710 
-2.21261e-05      11.7910     -29.9131 
2.20791e-05      4.41338     -175.583 
-2.20920e-05      9.19472     -10.5286 
2.19700e-05      9.07085      20.7918 
4.27805e-05      12.5018     -127.785 
4.23033e-05      9.31621      16.3359 
-4.35672e-05      11.6847      142.580 
0.000120543      9.50816      33.1558 
-0.000199343      13.2957      44.0259 
0.000142016      11.5544     -33.6354 
0.000191874      2.86775     -22.9958 
2.18180e-05      10.8768     -31.2336 
2.17039e-05      7.25985      101.277 
-0.000118269      11.9469      121.375 
0.000221302      12.8387      47.4634 
4.17999e-05      12.2861     -47.3737 
8.16985e-05      11.3283     -44.4981 
0.000194006      9.69705      76.2799 
-7.46388e-05      10.8549      42.8345 
4.14509e-05      11.3198     -150.580 
4.16418e-05      10.3355     -19.2058 
-0.000245266      11.9747      121.407 
2.13255e-05      9.12580     -92.0074 
2.12983e-05      11.9281      143.591 
6.08449e-05      4.43283     -175.602 
0.000138469      10.8489     -31.1976 
4.16206e-05      1.34429     -112.758 
7.79061e-05      9.32172      16.4510 
0.000234803      10.3514      103.635 
-0.000219253      7.15444     -109.598 
-0.000397121      5.22548      160.321 
-2.10598e-05      11.2252      137.528 
8.03804e-05      12.1809      41.8062 
-8.06351e-05      11.2983     -139.882 
2.08698e-05      9.73342      50.5841 
-0.000311988      9.66431     -108.211 
0.000190304      11.5368      127.606 
-4.08154e-05      12.8200     -136.897 
-5.89122e-05      9.66801      87.6291 
-7.97933e-05      11.2162      50.0644 
2.06827e-05      9.78875     -173.194 
-2.07087e-05      12.5638      142.894 
0.000115916      13.3152      40.7974 
0.000116213      11.9457      131.402 
0.000398130      11.6328     -151.673 
-0.000131531      10.1893     -22.9925 
-5.93963e-05      10.0829      122.113 
4.00855e-05      9.03631     -73.4115 
-2.04836e-05      9.67005      55.1926 
7.82842e-05      10.5467      23.1119 
2.01776e-05      12.4976      42.7298 
2.01475e-05      10.3768     -62.4454 
5.81642e-05      9.06048      116.338 
-7.66324e-05      10.0704      4.44029 
0.000189573      12.2935      145.404 
-2.00299e-05      11.6563      142.599 
-3.89656e-05      9.72186     -70.7847 
2.00485e-05      8.31060      27.6757 
5.79527e-05      9.10090      20.5837 
-3.89736e-05      9.55813      105.285 
7.60635e-05      8.14903      157.333 
1.99038e-05      11.9004      143.614 
-0.000131605      11.2739      40.7543 
3.87803e-05      9.80887     -173.208 
0.000188079      13.0625     -39.9080 
-5.51368e-05      10.9398      147.240 
0.000112993      11.9356     -39.4232 
0.000133859      14.2272      135.229 
0.000272891      11.5111      121.066 
0.000108837      10.3164     -19.2428 
1.95754e-05      11.7517     -122.420 
-3.75497e-05      12.4783      133.311 
3.73705e-05      2.27977     0.509199 
-5.66805e-05      12.8053     -136.836 
-3.74031e-05      11.2539      137.521 
0.000144773      8.50248      1.48176 
1.94677e-05      9.77434      50.4794 
0.000161156      14.0292     -135.000 
-1.94221e-05      8.78573      99.6964 
0.000161924      12.1401     -143.037 
-1.93404e-05      6.84550      2.34333 
-3.79676e-05      8.13680      31.7377 
3.78349e-05      10.2336      50.7103 
0.000108616      9.89248     -175.362 
-1.91947e-05      10.8697      42.7619 
-5.50965e-05      13.3046     -130.611 
0.000198649      11.8231     -39.3726 
-1.91141e-05      12.6214     -138.278 
-9.23383e-05      11.6724      142.659 
3.73849e-05      7.93705     -161.336 
7.04108e-05      9.91267     -175.371 
-9.07067e-05      13.4218     -40.4060 
7.40036e-05      12.7369      37.5342 
5.58174e-05      8.32003      27.7992 
0.000107573      11.0725      22.6270 
3.69635e-05      12.2723     -47.4433 
0.000108920      12.1825      41.6716 
5.45993e-05      10.2302     -122.789 
7.16900e-05      9.16151     -96.6460 
9.08216e-05      9.89414     -175.245 
3.62262e-05      11.2999      146.844 
3.59295e-05      8.50248     -1.48176 
0.000195250      11.5713     -33.5798 
-0.000247386      10.4893      164.745 
-0.000158254      7.14792     -109.451 
1.86604e-05      11.1560      126.912 
0.000140705      13.6243      136.605 
-0.000124254      11.5785     -38.8309 
0.000136566      2.84980     -23.1491 
5.35626e-05      8.56413     -156.609 
8.79447e-05      11.0803      22.7237 
1.85256e-05      11.8248     -54.7759 
0.000264028      12.2775      145.352 
0.000161308      12.8524      47.3969 
-3.57409e-05      11.2032      50.1438 
-0.000211510      10.4083     -24.6453 
1.84200e-05      11.8725      143.631 
-3.64692e-05      10.8314      70.0247 
1.83863e-05      9.78725      50.3879 
0.000107912      14.2410      135.284 
5.39451e-05      8.41391      59.1072 
5.38434e-05      11.4600      33.4674 
-1.82925e-05      12.5800      142.950 
3.56666e-05      3.76869     -114.115 
-3.56932e-05      10.0446      121.983 
8.82573e-05      10.8935     -31.1804 
-8.75503e-05      10.5912     -129.944 
-8.76975e-05      9.66719      87.7490 
-7.06363e-05      10.1091      66.0721 
0.000122281      10.3561      103.740 
1.80102e-05      8.52273     -1.47824 
-7.00584e-05      10.6335      19.5589 
-3.52830e-05      9.09133     -177.100 
-6.99610e-05      10.1813     -178.986 
3.53051e-05      11.6440     -142.678 
0.000256417      8.12323      157.412 
8.77313e-05      10.6147     -155.509 
1.78562e-05      9.49710      33.0535 
-6.97092e-05      13.3092      44.0863 
-1.78003e-05      9.70007      80.9829 
0.000173437      13.0035     -40.0092 
5.22465e-05      7.93059     -161.474 
3.53422e-05      8.54353     -1.61056 
-7.00580e-05      10.8267      69.7916 
-8.64574e-05      12.7905     -136.773 
-0.000138424      12.6375      42.8850 
6.98386e-05      10.1813      105.728 
-8.66656e-05      7.59739      109.532 
-3.48244e-05      12.5521      142.965 
3.49384e-05      12.7492      37.6064 
-3.45385e-05      9.58842      105.487 
-6.95341e-05      10.3843      63.3368 
6.91636e-05      11.0196      21.9572 
5.18658e-05      9.11304      20.4241 
3.46863e-05      11.6526      143.444 
-0.000103211      5.20641      160.246 
6.88587e-05      14.2555      135.341 
-1.74837e-05      10.1603      89.7757 
1.74078e-05      9.71123      76.4233 
-3.43481e-05      11.2586      40.8217 
-1.74036e-05      12.1792      43.8692 
-6.86951e-05      7.14120     -109.297 
-3.44394e-05      9.79118      61.4453 
3.45491e-05      13.2866      40.7884 
-1.72870e-05      9.70314      80.8691 
1.73238e-05      9.20307     -145.447 
-1.73011e-05      9.71545     -70.8933 
-1.72555e-05      7.51627      105.590 
5.14788e-05      13.8406     -42.8930 
1.72776e-05      9.05184      116.227 
1.72180e-05      10.3697     -16.9335 
-1.72174e-05      9.88496      123.946 
-3.42222e-05      10.2931     -13.7141 
-1.72075e-05      12.4649      133.246 
-3.41432e-05      12.1646      43.9353 
3.41257e-05      12.8661      47.3305 
5.11393e-05      10.5970     -155.466 
1.71228e-05      8.30278      27.8620 
-1.71354e-05      9.71934      81.0009 
1.70850e-05      10.8878     -109.867 
0.000163216      8.42433      58.9890 
-3.40504e-05      9.29061      108.707 
-1.70722e-05      6.67998    -0.173779 
-1.70390e-05      11.6885      142.720 
-3.39684e-05      10.3934      63.2370 
-1.70644e-05      10.4530     -168.409 
1.69575e-05      11.5973      36.0216 
-1.69493e-05      10.8197      69.8923 
1.69590e-05      4.71861      160.954 
1.69683e-05      10.5361      23.2565 
-1.69498e-05      10.1817     -178.872 
1.69275e-05      10.1758      105.619 
8.68479e-05      10.2460      50.6259 
5.33365e-05      8.40697      58.9178 
-3.57290e-05      8.28508     -25.1423 
-8.44209e-05      12.8934     -140.159 
0.000165258      12.7351      128.113 
5.17096e-05      9.29108      16.2511 
9.99372e-05      11.1262     -40.1880 
6.66266e-05      6.02025     -67.9493 
3.47501e-05      13.2739      40.7246 
0.000114621      11.2676     -150.430 
-1.74661e-05      11.4420      42.0255 
-8.09499e-05      7.96056      9.98264 
-3.32332e-05      8.52405     -27.2260 
6.45678e-05      13.6391     -133.337 
9.68102e-05      11.4881      33.4960 
6.42923e-05      9.74582      50.4955 
-0.000144043      9.91898     -156.849 
-3.27778e-05      8.26675     -25.2020 
-4.86678e-05      9.50415      156.566 
0.000159866      13.2893      40.6676 
-9.61194e-05      13.3214      42.3838 
8.04360e-05      10.2237      152.884 
3.25899e-05      6.04358     -132.721 
-1.66847e-05      9.48611     -12.5411 
-4.80996e-05      11.4275      42.0910 
3.25494e-05      12.2759     -52.8128 
0.000160197      11.6137      35.9629 
-3.20670e-05      8.50971     -24.8792 
9.51899e-05      8.64321      163.326 
-6.33140e-05      10.0618      121.922 
1.63870e-05      7.36220     -161.962 
4.79940e-05      11.4137     -117.104 
3.14966e-05      10.1790      152.883 
-6.48005e-05      9.31092     -43.0863 
4.71022e-05      3.74292     -113.965 
-7.90928e-05      12.7142      135.447 
6.31981e-05      8.47190     -147.435 
1.61187e-05      9.81168     -57.9946 
-3.12340e-05      11.3806      121.343 
6.32218e-05      12.2880      42.3617 
-6.24516e-05      7.98154      65.1022 
-0.000113698      8.22214     -25.1922 
3.28397e-05      9.31053      16.2162 
-6.52325e-05      10.2870      16.9558 
-4.83730e-05      10.6128     -15.6321 
7.90383e-05      13.2132      48.0063 
6.37435e-05      12.5268      42.6064 
6.23225e-05      11.4226     -117.191 
-4.69024e-05      9.53011      156.501 
4.68131e-05      7.34294     -161.913 
1.59636e-05      8.37205     -171.485 
-3.15344e-05      10.1633     -152.075 
1.57937e-05      11.1547     -40.2004 
4.66873e-05      12.6010      45.3233 
-3.09776e-05      10.8594     -121.289 
-3.08448e-05      12.4385      38.0120 
3.08454e-05      9.62015     -90.3575 
3.08503e-05      9.80096     -58.0951 
1.54770e-05      10.1964      152.933 
-4.63746e-05      9.15917     -166.873 
3.07433e-05      8.14125      157.465 
-1.64676e-05      9.32573     -43.0012 
1.60997e-05      10.2588      50.5384 
1.58487e-05      12.7430      41.1202 
1.57506e-05      9.51409      32.9869 
1.56034e-05      13.9738     -44.1885 
-1.53971e-05      8.56935     -27.2225 
1.52619e-05      9.11461     -99.0901 
-1.51859e-05      9.36634     -154.585 
1.51624e-05      12.3030      42.2981 
-1.51234e-05      9.26105     -169.297 
-1.51004e-05      10.4582      111.659 
1.51015e-05      11.1465      29.0947 
! Tentative model.
! Flux (Jy) Radius (mas)  Theta (deg)  Major FWHM (mas)  Axial ratio   Phi (deg) T \
! Freq (Hz)     SpecIndex
-1.64395e-05      8.22214     -25.1937 
