! Center RA: 12 21 31.69052,  Dec: +28 13 58.50011 (2000.0)
! Established model.
! Flux (Jy) Radius (mas)  Theta (deg)  Major FWHM (mas)  Axial ratio   Phi (deg) T \
! Freq (Hz)     SpecIndex
 0.0803759    0.0286526     -135.000 
 0.0199178    0.0446338     -116.996 
 0.0102486    0.0828082      104.162 
 0.0294969    0.0633577     -108.650 
 0.0394790     0.141777      98.2159 
 0.0175883    0.0828082     -104.162 
 0.0109642    0.0802914      90.0000 
 0.0170206     0.107434     -111.727 
0.00239735    0.0600310      90.0000 
0.000456445    0.0202604      90.0000 
0.000448504      0.00000      0.00000 
0.00688611     0.145849      105.824 
0.00654668     0.164706      103.973 
0.00193536     0.189835      108.435 
0.00568570    0.0828082      75.8378 
0.00126891     0.209153      106.680 
0.000721588     0.215843      111.838 
0.00422918     0.126477     -108.327 
0.00282067     0.234065      110.062 
0.000966190     0.253192      108.489 
0.00502398     0.145849     -105.824 
 0.0109835    0.0896014      63.6495 
0.000426489     0.241454      114.414 
0.00339126     0.260038      112.569 
0.00314049     0.278155      111.026 
0.00571321     0.164706     -103.973 
0.00287096     0.297155      109.625 
0.000598649     0.304558      113.217 
0.00326733     0.189835     -108.435 
0.000376383     0.316312      108.392 
0.00198051     0.323277      111.801 
0.000635178     0.205897      118.994 
0.000151084     0.178866      116.673 
0.00192996     0.184432     -102.453 
0.00181474     0.341468      110.586 
0.000199488     0.144435      56.2274 
0.000310965     0.188432      121.981 
0.00194685     0.128090      51.1829 
0.000182019     0.360505      109.453 
0.000404300     0.449253      122.310 
0.000419946     0.459977      124.364 
0.000468069     0.476838      122.990 
0.000188573     0.216445      123.690 
0.000134023     0.798447      112.081 
8.83145e-05     0.334882      107.339 
8.73183e-05     0.805984      113.367 
0.000776119     0.349107      113.700 
0.000305684     0.961787      110.697 
0.000294095     0.375627      115.183 
0.000689290     0.969133      111.818 
0.00123789     0.951048      112.255 
0.000186939     0.394056      113.929 
0.000224356     0.429314      117.819 
0.000339244     0.456404      118.798 
0.000161040     0.474259      117.619 
0.000184710     0.367749      112.431 
0.000191343     0.483985      119.745 
0.000513069     0.501018      118.638 
0.000390144     0.141777     -98.2159 
7.02415e-05     0.725357      114.444 
0.000459727     0.751254      115.183 
3.12977e-05     0.987971      111.381 
0.000652207     0.161111     -97.2243 
0.000351296     0.995250      112.427 
0.000756631     0.510656      120.559 
0.000273462     0.769637      114.541 
0.000290881     0.100252      53.2159 
0.000284394      1.01401      111.990 
9.52815e-05      1.03212      111.585 
0.000157487     0.159832     -90.0000 
0.000157354      1.03975      112.623 
0.000406202     0.778270      115.898 
0.000186279      1.05848      112.201 
0.000145348     0.180093     -90.0000 
0.000189055     0.521249      122.478 
0.000134378     0.181229     -83.5812 
7.71491e-05      1.07726      111.794 
9.24284e-05      1.09540      111.415 
0.000362508     0.141141      45.0000 
0.000124378     0.184432     -77.5470 
0.000258798     0.760096      116.565 
7.00313e-05      1.11429      111.035 
1.77352e-05      1.00315      113.497 
0.000284424     0.733645      115.831 
6.67126e-05     0.940038      113.823 
0.000147897     0.516406      125.538 
8.31270e-05      1.13322      110.667 
0.000130935     0.189835     -71.5651 
0.000104570     0.966811      114.437 
0.000123247      1.15150      110.324 
0.000147854     0.197181     -65.9711 
9.00482e-05      3.00487      116.904 
0.000102205     0.527985      127.261 
0.000177780      1.17052      109.980 
2.88353e-05      2.90208      113.562 
1.44185e-05      3.01422      116.399 
6.99977e-05     0.156126      39.7351 
0.000146090      3.01409      117.248 
2.77650e-05      2.89404      113.195 
4.05850e-05      2.87543      113.354 
0.000155066     0.524894      130.361 
0.000104592     0.205897     -61.0062 
2.67641e-05     0.197181     -114.029 
7.76865e-05     0.948403      114.943 
0.000187763     0.169793      45.0000 
1.34700e-05      1.08279      85.7475 
0.000161624      1.08441      84.7194 
6.28268e-05     0.632861      108.456 
0.000144305      2.86775      112.996 
5.01066e-05      1.15869      111.264 
4.71206e-05     0.205897     -118.994 
0.000177378      3.02342      117.589 
0.000181257      1.17760      110.906 
0.000143618     0.216445     -56.3099 
3.46184e-05     0.993009      115.035 
0.000111146     0.626742      106.699 
0.000132302     0.523357      133.490 
6.55119e-05     0.975367      115.520 
0.000389937     0.184676      40.5508 
0.000570280      1.06707      83.5397 
0.000110557      2.85990      112.622 
0.000441892      5.19216      133.284 
7.03070e-05     0.216445     -123.690 
0.000207738      1.46109      120.424 
2.06991e-05      1.01966      115.547 
8.77372e-05     0.621223      104.909 
2.03911e-05      1.85351      55.1068 
0.000360830      3.75915      95.7971 
2.02790e-05      1.20797      109.335 
3.02560e-05      3.51290      131.762 
0.000413495      1.88068      54.9593 
0.000249046      1.00142      116.047 
0.000113441     0.536971      135.000 
4.79724e-05      6.39079      122.996 
0.000244811      3.52643      132.007 
2.87993e-05      1.25851      107.560 
4.70656e-05      3.02487      118.428 
0.000123039      1.47859      120.026 
5.62435e-05     0.228306     -52.0755 
0.000500830     0.244605     -125.006 
4.49231e-05      2.98422      120.176 
9.22346e-06      1.27784      107.286 
0.000149821      6.40779      122.897 
6.06775e-05      1.31037      105.954 
0.000131549      6.95749      108.957 
0.000100209     0.596781      103.599 
8.87555e-06      2.84190      112.773 
0.000367504      2.38180      113.763 
2.57149e-05      1.04672      116.069 
0.000153834      2.83412      112.396 
4.22941e-05     0.523357      136.510 
0.000414546      1.75664      97.8567 
0.000110248      2.97767      120.701 
2.34366e-05      3.03250      117.916 
7.45859e-05     0.250509      118.638 
0.000107479      1.02856      116.565 
0.000220018      3.60507      105.118 
0.000112706      1.32987      105.714 
0.000122846     0.538237      137.995 
0.000338639      1.47145      121.104 
9.26613e-05     0.592344      101.694 
7.65311e-06     0.354273      106.362 
1.46693e-05     0.369026      102.567 
0.000249375     0.983930      116.546 
0.000144614      6.95093      108.799 
8.21709e-05      6.39681      122.745 
0.000469386     0.212689      41.2810 
1.36792e-05      6.93176      108.853 
7.55286e-05      1.86954      55.4488 
2.11867e-05      2.97033      121.224 
0.000171299      3.79228      129.653 
6.93323e-05     0.796545      115.261 
0.000447675      3.47650      158.752 
4.01824e-05      1.01048      117.079 
0.000498533      3.75723      95.5011 
1.36182e-05     0.388092      101.940 
1.38367e-05      2.56320      112.970 
8.94915e-05      2.95302      121.428 
0.000271729      1.34866      105.490 
0.000135150      5.17798      133.432 
5.00767e-05      2.57087      113.370 
1.93267e-05      3.04139      117.412 
3.74405e-05      1.16287      93.9592 
6.48291e-05     0.233573      120.932 
0.000134366      2.65295      54.5207 
1.29116e-05     0.424483      98.1301 
7.60156e-05      2.29582      108.287 
3.75763e-05     0.588572      99.7625 
6.47152e-06      2.93768      111.157 
0.000165729     0.540492      141.030 
6.32848e-06      2.94938      110.648 
0.000130434      6.41323      122.651 
1.24076e-05     0.568616      100.109 
3.01399e-05      2.97964      110.014 
1.19987e-05      1.17760      69.0936 
1.21584e-05     0.443806      97.7739 
0.000157732      1.15869      68.7360 
5.07404e-05      1.06498      84.6228 
0.000207305      2.39003      114.207 
6.82473e-05      6.97594      108.905 
3.46293e-05     0.565518      98.1624 
0.000105940      2.94707      121.962 
7.32120e-05      1.18457      94.8330 
3.14443e-05     0.244605     -54.9936 
1.15868e-05     0.441522      95.1680 
6.76126e-05      3.05042      117.738 
0.000115950      4.08362      127.038 
1.51480e-05      3.46506      158.318 
3.76050e-05      2.57898      113.783 
0.000120796      2.99210      109.530 
5.43999e-05      2.66476      54.1660 
4.88869e-05      4.34159      165.322 
0.000292672      2.31618      53.4308 
0.000424154     0.543603      96.3402 
0.000101497      5.16458      133.275 
0.000303843      1.48162      121.750 
6.55605e-05     0.788112      113.929 
3.41839e-05      4.36120      165.390 
0.000148372      2.66035      53.5568 
0.000105389      6.61006      121.770 
0.000171895     0.228306      127.925 
5.25629e-05      2.30278      107.171 
0.000364102      4.35613      165.648 
9.50663e-06      2.28954      107.805 
0.000140064      2.81212      123.694 
0.000282515      3.61020      105.417 
3.78219e-05      3.52505      132.472 
2.93797e-05      6.90676      108.746 
2.28194e-05      2.58721      114.194 
0.000153734      2.41684      114.448 
2.32169e-05      4.11200      127.094 
0.000148761     0.957123      116.043 
8.76392e-05      1.18645      95.8079 
8.63385e-05      3.06837      117.561 
1.83379e-05     0.527985      142.739 
3.12665e-05      5.13594      133.265 
0.000270469      4.03754      110.587 
0.000206704      4.26115      127.948 
9.35396e-05     0.543641      143.984 
3.30993e-05      6.40232      122.498 
5.64189e-05      4.09981      126.868 
0.000326848      2.67198      53.2202 
5.07956e-05      2.96364      121.762 
0.000252339      6.59942      121.621 
0.000245224      5.08125      132.606 
8.00874e-05      2.29709      106.706 
4.07987e-05      6.99511      108.851 
0.000190850      1.75398      97.2010 
2.27361e-05      6.22481      122.671 
2.25263e-05     0.562998      96.1209 
3.93912e-06      2.59527      114.587 
0.000147769      2.79590      123.916 
4.51120e-05      7.02060      108.948 
7.21434e-06      2.60377      114.992 
8.06217e-05      3.80524      129.888 
0.000112976      1.20586      95.7141 
7.98207e-05     0.532403      145.683 
1.99616e-05      6.41942      122.401 
7.45402e-05      1.06954      82.4611 
8.39240e-05      3.07779      117.896 
3.04467e-05      3.52339      132.929 
3.40238e-05      6.21390      122.514 
1.86670e-05      2.61239      115.395 
2.69239e-05      6.61668      121.529 
9.81530e-06      2.29135      106.221 
2.66319e-05      2.95784      122.295 
6.64128e-05      1.35400      106.286 
7.22533e-05      2.29939      105.134 
5.83968e-05      1.49238      122.412 
2.40045e-05      6.88131      108.646 
4.52428e-05      7.03906      108.897 
8.90138e-05      4.20206      167.354 
8.56259e-05     0.538451      148.680 
8.69416e-06      6.40899      122.254 
3.82811e-05      4.08814      126.649 
2.05858e-05      2.62082      115.780 
2.53029e-05      1.12172      112.001 
1.53952e-05      5.30883      132.405 
1.33428e-05      6.34926      121.738 
4.83235e-05      1.53173      125.972 
2.53206e-05      2.59697      49.6878 
1.25128e-05      3.52301      133.386 
1.50186e-05     0.761740      113.206 
7.76237e-06      1.77168      118.291 
3.47649e-05      1.77334      97.1220 
5.15033e-06      4.35719      164.559 
1.97070e-05      6.35589      121.487 
3.19736e-05      2.79054      124.493 
1.96956e-05      7.06480      108.999 
-3.43261e-05      6.84230      110.713 
9.76013e-06      1.77123      116.847 
2.20502e-05      4.36263      164.302 
1.23550e-05      1.78047      117.429 
1.22063e-05      3.09505      117.727 
1.23512e-05      4.22183      167.414 
7.29359e-06      3.83330      129.918 
1.19914e-05      4.24087      167.471 
7.15482e-06      6.88758      108.800 
-0.000540776      9.08263      19.1520 
-0.000536383      4.30818      102.872 
0.000735354      8.43255     -70.3170 
-0.000586452      10.1160     -101.866 
-0.000303990      5.25692     -29.3898 
-0.000126988      5.27393     -29.2858 
-0.000601368      8.81079      81.7788 
-0.000154485      6.91969     -107.494 
0.000219974      9.79881     -13.6968 
0.000374835      10.6379     -46.3690 
0.000449461      9.12382     -115.722 
0.000211890      1.81630      118.259 
7.86946e-05      5.59924      60.2294 
0.000243675      2.39141      43.3090 
-7.80311e-05      7.34592     -7.66658 
-3.92676e-05      9.10843      19.2306 
0.000208305      8.21195     -67.3693 
0.000272078      10.6594     -19.6251 
0.000299573      10.3507     -9.78805 
-0.000285620      11.2207     -59.8255 
-0.000303900      8.00253      128.302 
-0.000291188      6.62899     -127.771 
0.000363644      12.1828     -144.352 
0.000175799      5.61619      60.3282 
-0.000135321      10.4924     -13.5582 
-0.000134147      4.62534     -12.2324 
-0.000133844      7.36525     -7.64633 
0.000134189      5.93546      145.993 
-0.000165261      3.56655     -102.627 
0.000228606      10.5697     -107.510 
-0.000193554      9.43334      28.6323 
0.000227737      13.7191     -44.1734 
-0.000163483      4.74836     -119.802 
0.000161982      8.49284      38.7879 
0.000159609      11.6945      38.7511 
-0.000251934      6.93937     -79.3693 
-0.000162150      12.0358      45.6062 
-9.52610e-05      6.91363     -107.334 
0.000161483      3.57878      62.0003 
9.94301e-05      11.2836     -122.847 
9.92206e-05      5.93155      81.0775 
-6.29264e-05      9.99822      55.1017 
0.000155223      9.72028     -90.5883 
9.48976e-05     0.655281     -12.3651 
-3.31087e-05      10.2885     -174.421 
0.000185851      7.80235      91.3226 
0.000154853      9.79404     -13.5816 
-0.000122997      10.2531      4.58813 
-9.48275e-05      12.2824     -49.3581 
0.000122862      6.55347     -95.7831 
-0.000122189      4.43998     -164.583 
0.000153873      4.78430     -137.371 
-0.000152965      11.2309     -59.7361 
-9.19783e-05      9.08930      19.2726 
-3.18785e-05      3.46057      59.4368 
0.000152413      6.70809     -126.393 
-3.17724e-05      9.77865     -72.3784 
6.03591e-05      10.1380      18.7555 
-3.14667e-05      1.72080     -107.590 
-9.09798e-05      3.39803      73.5940 
-9.02371e-05      9.57519      93.2346 
-9.02406e-05      10.2401     -179.551 
3.11344e-05      9.68463      74.6705 
0.000119637      5.93473      80.8843 
6.11333e-05      10.5639      118.990 
-3.08297e-05      7.08343     -4.69711 
-3.07877e-05      2.51414      78.0629 
5.89457e-05      8.10689     -41.1984 
-5.95738e-05      12.5383      48.4257 
-3.04287e-05      7.67797     -172.966 
-5.93575e-05      9.52018     -179.878 
3.01604e-05      10.5949     -107.578 
5.92771e-05      5.03893     -28.7024 
5.89394e-05      9.70417      74.7021 
-5.88776e-05      1.71479     -106.944 
-5.88288e-05      12.2956     -49.2864 
-5.81188e-05      7.06399     -4.71006 
5.83985e-05      9.84957     -112.188 
-5.78986e-05      8.04920      54.0991 
2.93312e-05      7.89102     -150.383 
-2.92842e-05      7.98998      128.188 
-2.92166e-05      2.49091      78.4260 
-2.92115e-05      8.61502     -33.0603 
-2.91253e-05      10.3272      104.011 
2.91390e-05      9.44091      89.1484 
-5.73120e-05      12.1403     -43.1316 
2.87439e-05      12.4031      134.674 
2.85839e-05      3.55205      62.1411 
2.84745e-05      5.04869     -28.9041 
2.84078e-05      9.72299      74.7325 
2.84441e-05      6.73642     -126.430 
4.94849e-05      8.54570     -19.4118 
7.11471e-05      8.36288      162.604 
0.000203144      11.4334     -50.3230 
9.04634e-05      8.30575      9.98399 
-6.87324e-05      11.5582      133.527 
0.000107535      8.52659     -19.4571 
-0.000123979      11.9277     -39.8291 
-0.000124723      4.20488     -67.3384 
0.000132567      3.70157     -173.797 
0.000471119      11.4275     -54.4741 
0.000163867      4.56487     -112.408 
0.000442931      11.5499      117.764 
0.000147912      8.36873      162.476 
0.000131251      11.5447      147.165 
-3.54201e-05      8.66216      85.8967 
0.000128957      5.47547     -117.878 
-4.11525e-05      10.1731      56.4682 
-0.000111488      11.5443      133.454 
0.000141835      5.38851     -108.167 
-9.30633e-05      9.33740      125.937 
2.07374e-05      13.5480      44.7599 
5.87071e-05      10.5142     -112.124 
-5.87511e-05      10.1506      132.363 
-0.000487701      11.3350      38.9110 
-4.00249e-05      12.5245     -127.475 
2.03505e-05      8.32570      9.95982 
0.000104049      10.7876     -25.9466 
-8.91212e-05      12.9520      129.737 
-5.53392e-05      7.73148     -5.19544 
-5.39567e-05      8.64195      85.8871 
-3.82852e-05      5.05359     -161.059 
0.000142110      8.30226      9.84629 
-5.27150e-05      7.49429     -173.105 
-7.86179e-05      12.5090     -127.530 
-3.63653e-05      5.30447      62.3728 
-6.94967e-05      12.1896     -40.2734 
-3.52100e-05      6.28028      157.928 
-9.50225e-05      8.26966      120.842 
-3.51132e-05      10.9076      55.2331 
-0.000106270      5.03443     -160.984 
3.54834e-05      9.83081     -95.8398 
-0.000141735      7.61476      59.1941 
-0.000120147      11.4580      136.271 
6.53726e-05      10.1534      140.196 
-0.000217745      9.27549     -124.549 
-1.76643e-05      9.19870      173.508 
-3.38895e-05      8.65846     -69.3033 
0.000244623      8.32322      47.5321 
-1.75127e-05      4.06153     -162.817 
3.27046e-05      11.8295     -136.918 
6.25507e-05      10.5218     -112.226 
1.71993e-05      8.50145     -19.3721 
1.71696e-05      12.8100      139.495 
0.000255659      12.4920      142.873 
0.000338368      9.80936     -95.7337 
3.29719e-05      5.81465      144.942 
-0.000129223      7.38333      178.294 
-3.28207e-05      10.5175      65.6274 
-2.98668e-05      6.88127      141.967 
-0.000164861      12.4806     -127.513 
-0.000142463      10.7140      34.9634 
-0.000104753      6.08592      95.2776 
-4.75227e-05      9.92903     -163.500 
-3.15699e-05      9.17931      173.494 
-8.45538e-05      11.1460      43.9826 
-0.000101379      10.8794      55.2599 
3.21459e-05      8.19322      146.854 
-0.000223442      11.6522     -37.0455 
-1.62703e-05      8.79708     -45.7396 
4.64727e-05      12.8122      139.623 
5.94227e-05      7.78149     -66.1985 
-4.64443e-05      6.91754     -23.1553 
-1.60047e-05      7.84651      115.193 
-4.52670e-05      7.93003     -120.963 
-0.000183882      12.9676      129.680 
0.000180561      10.1536     -72.8145 
1.58093e-05      10.3892     -159.962 
-9.88272e-05      12.6734      133.976 
8.55052e-05      12.0932     -52.3913 
-1.56242e-05      5.75288      104.087 
7.26139e-05      7.37990     -131.814 
3.04928e-05      6.19495      81.0876 
-1.54831e-05      8.69769     -45.6536 
1.54660e-05      8.49476     -19.2432 
0.000129380      12.2456     -140.433 
-4.37028e-05      10.5256      65.5307 
6.69690e-05      9.54720     -78.6450 
8.38397e-05      8.18257      146.969 
-1.50217e-05      11.9121     -39.8915 
5.36291e-05      5.79869      144.831 
-8.14305e-05      8.68321     -45.5602 
-1.49129e-05      5.77730      104.226 
-1.48882e-05      10.9898      21.5689 
-2.87778e-05      6.26150      67.8581 
1.48435e-05      11.4157     -54.5569 
0.000153580      7.03712     -98.4990 
-0.000213505      8.76316     -85.8113 
-4.86028e-05      9.88723      28.1190 
-1.46468e-05      10.7416      34.9923 
2.84719e-05      10.3825     -160.063 
-1.45970e-05      11.6900      47.2189 
4.00835e-05      11.8429     -136.849 
-2.72823e-05      10.1859     -109.858 
-0.000131365      8.15318     -86.7658 
-1.44440e-05      9.92329     -163.612 
6.48613e-05      8.74687      108.393 
1.43305e-05      5.63180     -20.3666 
5.37248e-05      5.39463     -108.364 
-0.000115193      10.9824      21.4706 
-1.42931e-05      10.3349      130.996 
-0.000375669      9.30730      61.5071 
8.45389e-05      8.38734      162.517 
7.53341e-05      10.1379      140.123 
-0.000190886      4.31313     -141.591 
-6.48249e-05      5.66126      103.694 
8.98465e-05      12.7968      139.564 
-1.41302e-05      7.86417      115.132 
-0.000138913      9.52810     -5.78109 
-5.14460e-05      9.75083     -35.4844 
-4.04323e-05      9.94201     -163.644 
2.66046e-05      6.17494      81.0585 
-2.66577e-05      5.57696     -83.4095 
1.37166e-05      10.1664      140.108 
-0.000121620      7.62516      59.0633 
-3.91797e-05      10.3482      131.081 
1.35629e-05      8.46921     -19.1638 
-0.000178648      8.13413     -86.6152 
-2.62629e-05      11.5451      133.317 
-2.64093e-05      10.9012      159.039 
2.59688e-05      6.54482     -156.018 
8.37104e-05      10.4954     -112.166 
-2.55153e-05      10.4981      38.8140 
-6.36996e-05      3.24073     -91.0614 
5.10375e-05      7.36641     -131.697 
7.69898e-05      9.79009      77.0130 
0.000100979      10.2867     -113.126 
1.29752e-05      11.4210     -50.3983 
-1.29461e-05      11.1500      55.9677 
-1.29115e-05      8.34777      14.0038 
1.29097e-05      12.1139      142.108 
3.61597e-05      4.59035     -112.541 
8.20486e-05      11.7893      124.634 
1.28504e-05      8.97491      114.907 
-4.90492e-05      9.19076      92.7423 
1.27631e-05      13.8995      47.3322 
2.43054e-05      9.90662      24.7015 
4.83258e-05      3.95127     -41.9209 
4.64993e-05      12.1104      141.973 
-6.73379e-05      6.08416      95.0946 
-3.45700e-05      10.5601      65.3744 
-4.50627e-05      9.93653     -163.752 
6.96002e-05      8.15454      147.010 
3.47931e-05      7.12350     -28.5088 
-1.23503e-05      6.28028      67.9278 
2.42788e-05      9.53684     -133.132 
-0.000213356      13.7861     -42.6486 
-2.37959e-05      8.36743      13.9702 
6.39996e-05      7.30393     -96.2875 
6.67083e-05      6.54183     -96.4941 
1.22321e-05      8.46258     -19.0342 
1.22039e-05      10.3756     -160.168 
-3.53282e-05      8.72506     -164.307 
-2.39821e-05      12.6874      134.041 
3.46834e-05      3.02447     -168.174 
1.21077e-05      11.5505      147.299 
0.000272647      11.4579     -142.089 
5.29475e-05      11.4184     -50.2605 
-3.39563e-05      5.57467     -83.6164 
-0.000144935      7.46065      121.514 
-3.38140e-05      10.8628      55.1990 
-3.39357e-05      11.4715      136.201 
2.31695e-05      11.0216      152.320 
3.40215e-05      12.0963     -52.5237 
6.22260e-05      13.8858      47.3937 
5.36704e-05      7.13075     -159.988 
8.84766e-05      7.33780     -131.684 
-1.19060e-05      8.66957     -45.6523 
-2.31993e-05      10.8830      159.002 
3.35007e-05      6.57127     -155.935 
-9.30782e-05      11.5312      133.244 
-7.42985e-05      10.7299      34.9037 
-1.17512e-05      11.1549      56.1100 
4.38611e-05      9.80736     -95.6159 
4.46285e-05      12.8817     -137.517 
-1.88360e-05      12.1742     -40.3351 
-1.16484e-05      6.86926      142.095 
-3.29512e-05      10.3462      131.239 
-4.17834e-05      7.38278      178.445 
3.25662e-05      11.0389      152.367 
-4.22593e-05      12.3980      52.0751 
-2.25725e-05      5.65649      103.494 
-8.56877e-05      10.1888     -154.292 
2.18875e-05      8.99261      114.854 
2.08445e-05      11.8567     -136.777 
-7.36418e-05      9.19175      92.8685 
-1.14091e-05      8.54241     -4.16092 
1.13871e-05      6.15191      81.2087 
5.16496e-05      9.56547     -133.137 
4.12672e-05      8.02266      147.420 
2.20611e-05      12.9855      137.935 
-6.15900e-05      8.65562     -45.5620 
-0.000160794      8.52220     -4.17080 
-9.74784e-05      12.1719     -40.4695 
3.21184e-05      9.78719     -95.6275 
2.14666e-05      8.44413     -19.0774 
-2.13099e-05      11.2023      136.012 
4.85574e-05      9.88822      24.7505 
-1.11184e-05      7.53626      114.457 
3.23490e-05      10.0793      139.989 
0.000208636      12.7991      139.692 
-1.10771e-05      8.55549      84.7714 
-1.10517e-05      4.18086     -107.830 
-2.09896e-05      5.59268     -83.8381 
-3.25835e-05      9.54826     -5.76884 
-7.01785e-05      9.85157      33.6562 
-0.000118552      8.70081     -164.401 
-4.04914e-05      12.6874      133.914 
2.07655e-05      9.78464     -52.4719 
4.17791e-05      14.2566      44.2024 
2.13817e-05      10.1006      115.194 
-1.09245e-05      10.8760      159.098 
-3.97695e-05      4.53293     -66.6009 
-0.000107501      5.63679      103.542 
-1.08430e-05      12.2043     -34.3164 
8.80018e-05      10.5546     -136.691 
2.03072e-05      3.93622     -42.1179 
7.53486e-05      7.12384     -160.141 
-1.07038e-05      8.37235      14.1047 
-1.07183e-05      8.06067     -138.321 
5.81882e-05      10.5406     -49.5416 
-7.73245e-05      7.63559      58.9329 
-4.80172e-05      6.58515      142.156 
2.06992e-05      11.4308      147.869 
-7.75443e-05      12.2096     -34.1843 
2.06891e-05      11.5026      152.900 
8.73556e-05      11.1239     -140.472 
-0.000124493      9.54631     -5.65234 
-1.04311e-05      10.8688      159.198 
1.04214e-05      3.06757     -167.956 
5.71106e-05      8.14353      147.130 
1.03659e-05      11.5501      41.2808 
9.34537e-05      10.1402     -72.6713 
0.000153214      7.09200      104.035 
-2.98231e-05      12.4652     -127.567 
-2.02527e-05      10.9005      158.470 
-1.98336e-05      5.61621     -36.7489 
-4.95340e-05      11.4800     -122.331 
0.000420256      11.4934      152.990 
1.97014e-05      12.0950      141.916 
1.01727e-05      4.69549     -113.070 
-7.19741e-05      8.13296     -86.7577 
2.00172e-05      10.0508      140.003 
3.76128e-05      3.68171     -66.6327 
9.36543e-05      10.2020     -35.7488 
3.73261e-05      5.03265      57.8289 
3.87646e-05      11.1715      153.068 
3.57247e-05      9.54338     -78.7599 
1.00563e-05      7.13168     -28.2881 
-1.00346e-05      8.47041      138.253 
6.65613e-05      12.8954     -137.450 
9.98972e-06      9.21955      170.007 
5.72676e-05      7.32484     -131.570 
-2.92402e-05      11.8655      58.1594 
-0.000173049      10.1976     -154.189 
-2.85879e-05      10.3439      131.394 
0.000161021      10.5759     -156.247 
9.90108e-06      6.57956     -155.773 
4.11784e-05      7.04014     -98.6621 
-9.82989e-06      6.92724     -103.353 
-1.87806e-05      12.4569     -35.1950 
-9.82741e-06      5.88414     -177.859 
3.76686e-05      10.2788     -113.022 
7.06923e-05      12.9991      137.868 
-4.24123e-05      11.1877      135.940 
4.48218e-05      12.5042      142.799 
9.60563e-05      11.5405      117.675 
-3.57015e-05      10.8720     -65.0834 
-9.68266e-06      6.08240      94.9045 
1.90363e-05      14.2707      44.2608 
-9.68189e-06      10.8616      159.298 
0.000130444      8.12715      147.055 
-9.60996e-05      8.78337     -85.8209 
1.87029e-05      3.09165     -167.667 
9.64572e-06      8.95524     -14.7477 
6.81951e-05      7.59208     -41.7948 
5.40369e-05      11.4205      147.952 
2.80890e-05      10.0359      139.932 
-9.61353e-06      7.55281      114.732 
-2.80379e-05      10.9077      158.375 
-0.000128640      8.55928     -162.879 
-2.56141e-05      8.39200      14.0710 
9.46070e-06      9.20034      169.986 
-4.43798e-05      9.17255      93.0012 
9.40845e-06      8.43753     -18.9474 
2.59486e-05      7.28159     -96.1465 
-5.24678e-05      10.5027     -75.3283 
-9.15809e-05      10.7204      140.906 
-9.88587e-05      9.96007      32.2868 
-1.78619e-05      10.3013     -55.5992 
-4.08376e-05      7.40908     -87.2135 
5.96523e-05      6.56427     -96.6498 
9.31867e-06      4.75577     -113.548 
-0.000140096      11.5073     -122.365 
-0.000124943      11.8380      58.1879 
-9.28318e-06      5.83819      22.3457 
9.27461e-06      7.14953     -28.2112 
-9.27584e-06      12.6729      134.105 
-5.25922e-05      13.5208      134.280 
-2.70277e-05      12.4367     -127.550 
9.22784e-06      6.13124      54.9620 
-9.23012e-06      1.64766     -100.496 
2.68000e-05      8.95029     -14.6269 
-0.000213355      11.3635      38.9263 
1.78288e-05      7.11699     -160.295 
9.21166e-06      11.5367      41.2052 
2.61085e-05      9.80826     -111.908 
5.69819e-05      11.7537      150.206 
-9.16199e-06      10.5683      65.2783 
-5.99541e-05      11.0564     -53.0889 
9.09653e-06      11.2600     -125.384 
2.41352e-05      13.1419     -129.504 
-9.30118e-05      8.29036     -7.48395 
2.61715e-05      9.58589      55.7153 
1.76618e-05      8.98442      114.741 
-0.000158777      13.4927     -135.719 
9.07551e-06      9.03926     -15.2672 
-9.06010e-06      10.8547      159.394 
-1.76579e-05      10.3019      37.9826 
4.80136e-05      12.4014     -47.6141 
-9.03220e-06      8.57753      84.6490 
-3.48709e-05      8.64145     -45.6579 
-3.49061e-05      13.9212     -46.6293 
1.76368e-05      11.4059     -50.3358 
9.46673e-05      13.3683      43.6058 
2.63790e-05      12.4163      145.235 
-9.71696e-05      9.57433     -146.674 
-8.94676e-06      4.18688     -108.084 
5.00646e-05      11.4995     -144.487 
-2.63799e-05      10.8889      158.336 
8.89853e-06      8.43122     -18.8220 
4.06682e-05      12.2581     -140.362 
8.86877e-06      9.41831      109.090 
1.66926e-05      5.79387      144.552 
-5.47703e-05      7.44339      121.596 
3.41336e-05      7.72899     -164.849 
3.42366e-05      12.3180     -47.7653 
-4.86150e-05      9.27693     -53.9467 
2.58856e-05      9.05808     -15.2347 
-1.73530e-05      12.6440      134.360 
6.58062e-05      11.1110     -140.552 
5.71380e-05      11.7289      150.026 
3.34950e-05      9.40558      109.243 
-0.000147715      10.9753      21.3759 
-0.000150977      9.56648     -5.64038 
2.54762e-05      7.31142     -131.451 
-3.36471e-05      10.3427      131.550 
-4.03575e-05      7.64568      58.8077 
-8.58682e-06      8.29302     -7.62274 
2.46325e-05      10.5383     -150.807 
-9.35810e-05      12.4735     -35.1414 
-6.06152e-05      5.63208      103.342 
2.43658e-05      13.1704     -129.516 
-8.54714e-06      10.4580     -38.0088 
6.37341e-05      10.0073      139.946 
8.50179e-06      5.17646      37.6208 
1.66392e-05      10.2525     -112.966 
-3.29453e-05      9.30324     -124.577 
-8.50757e-06      7.13194      173.075 
-8.49977e-06      10.8964      158.237 
7.02614e-05      11.4342     -54.2529 
8.48528e-06      3.11071     -167.744 
4.79573e-05      14.0629      46.6151 
0.000118925      11.3255      25.5226 
-0.000235345      13.8010     -42.5916 
-4.04552e-05      12.6295      134.425 
-1.66328e-05      12.4088     -127.536 
-6.96646e-05      8.55995     -154.093 
4.04360e-05      8.94520     -14.5014 
-1.65172e-05      12.2144     -34.0542 
2.39904e-05      5.00512      57.8945 
6.37848e-05      12.4330      145.288 
-9.43644e-05      13.9360     -46.6865 
-2.41388e-05      12.1873     -40.4077 
4.90648e-05      12.2899     -47.7691 
-8.31607e-06      12.9649      129.806 
-3.63605e-05      10.8783      158.199 
2.36425e-05      10.5265     -136.693 
-7.96343e-05      13.2858      133.231 
1.63942e-05      9.08277     -15.3199 
-8.28923e-06      7.47126      121.647 
5.41786e-05      5.19253      37.4843 
-1.62520e-05      12.7020      133.851 
-7.80041e-05      11.6604      34.2341 
1.62693e-05      7.70944     -164.810 
8.16035e-06      10.1682     -44.6023 
3.13281e-05      11.3930     -50.4143 
-3.84177e-05      6.32689     -174.740 
3.11239e-05      11.4097      148.038 
2.40556e-05      13.0267      137.862 
-5.48591e-05      13.9163     -44.7662 
-6.70749e-05      13.5350      134.342 
8.09641e-06      8.01176      147.542 
0.000107012      12.5081      142.929 
2.27645e-05      9.59732      55.6154 
-5.16340e-05      7.70850     -110.503 
9.51635e-05      13.3978     -139.844 
-4.60881e-05      9.17152      92.8748 
2.31096e-05      12.5548      144.335 
-5.41936e-05      11.5353     -122.396 
-8.00640e-06      5.63610     -36.3420 
-7.48502e-05      12.2035     -33.9783 
-6.12936e-05      12.1800     -127.060 
-7.53061e-05      11.0442     -53.1729 
-4.66953e-05      5.25264     -137.623 
8.43134e-05      12.2763     -47.8392 
3.07461e-05      8.42471     -18.6915 
-3.08631e-05      9.27477     -146.788 
6.11231e-05      11.4224     -54.3354 
-7.96206e-06      6.56916      142.048 
-7.95492e-06      9.72379      1.64946 
-1.57677e-05      14.2429     -45.9670 
2.22027e-05      11.1093     -153.944 
1.56711e-05      7.28282     -131.437 
5.94619e-05      10.7460     -30.9082 
7.91680e-06      11.0037      152.271 
9.61048e-05      12.4151     -47.5451 
8.34196e-05      7.68459     -164.916 
-1.55729e-05      10.3410      131.708 
-1.56329e-05      10.4314     -15.3419 
7.88896e-06      8.19921     -55.5377 
-2.34998e-05      11.6327      34.2108 
1.56930e-05      7.91466      93.4787 
-7.88382e-06      12.7031      133.724 
-3.76534e-05      7.22879     -150.313 
-7.83628e-06      11.0875      118.322 
0.000359674      12.8140      139.748 
-5.28572e-05      11.2375     -64.9408 
-1.54284e-05      3.24117     -91.4195 
-3.04433e-05      10.4970     -37.5678 
-7.84258e-06      8.56882     -153.971 
1.55711e-05      13.0403      137.796 
-7.80465e-06      2.04825      152.675 
-6.28546e-05      12.7166      133.788 
-2.28608e-05      9.74404      1.64603 
-7.77703e-06      13.5149     -48.3604 
0.000153767      8.94014     -14.3757 
-0.000146763      13.0031      133.195 
-7.74156e-06      7.15205      173.094 
-7.74986e-06      7.57812      115.144 
-1.54048e-05      10.8767     -28.9221 
-7.73147e-06      9.27251     -53.7718 
-6.39934e-05      13.5165     -48.4771 
8.09812e-05      11.1007     -154.034 
-2.23306e-05      7.16247     -47.4881 
7.87862e-05      10.2527      120.215 
-7.69432e-06      10.8151     -71.2281 
-0.000131641      12.7484      36.7080 
-1.52755e-05      11.1047      118.274 
-3.00201e-05      11.1736      136.015 
7.45016e-05      13.1997      138.072 
-0.000118680      10.2470      4.14062 
2.26757e-05      14.4250      135.114 
-7.65452e-06      7.41005     -87.0628 
1.52555e-05      7.30421      28.8111 
-3.03488e-05      12.1615      41.1324 
5.16671e-05      10.1267     -72.5318 
-2.27103e-05      14.2268     -134.658 
2.97607e-05      10.5182     -67.5314 
1.50019e-05      8.74664     -7.09148 
-5.92174e-05      14.2570     -45.9084 
-7.43594e-05      10.8938     -28.8725 
-6.38628e-05      9.02064      51.3015 
2.20197e-05      8.00131      147.660 
-1.49173e-05      9.91399      28.1692 
-0.000123440      12.6293      134.550 
-2.23785e-05      7.90087      115.007 
-7.58468e-06      8.57945      84.5143 
4.43567e-05      12.4375      145.416 
-1.49884e-05      7.21877     -150.453 
-8.77767e-05      10.2151     -154.237 
-2.97321e-05      4.47667      124.255 
7.53323e-06      10.5114     -150.851 
-2.21313e-05      8.13134     -80.5133 
-4.38128e-05      7.11844      159.785 
-0.000137878      13.9301     -44.7097 
-7.29824e-05      10.2273      92.1276 
-1.48466e-05      10.4510     -15.3125 
-5.83304e-05      13.2849      133.354 
-1.49181e-05      11.8214      58.1380 
2.95245e-05      7.31400      28.9501 
2.91378e-05      8.74425     -6.96462 
7.47092e-06      9.10231     -15.2862 
-2.23023e-05      12.1749      41.2042 
9.40610e-05      10.5944     -156.291 
-7.45263e-06      5.26581     -137.466 
-5.81323e-05      7.42614      121.678 
8.78281e-05      7.59053     -42.0108 
2.19546e-05      11.5377     -60.2787 
-7.93734e-05      10.2240     -154.135 
2.20540e-05      12.2476     -47.8458 
-2.94795e-05      11.6766      34.1803 
-7.23365e-05      12.3756      135.852 
-0.000115444      11.9650      34.1674 
-3.62791e-05      5.23769     -137.473 
-4.38698e-05      11.5628     -122.424 
-5.80280e-05      12.1678     -126.984 
0.000129779      14.4389      135.168 
-7.37210e-06      10.3540      131.789 
1.33333e-05      7.60560     -41.9086 
9.37321e-05      3.47367      128.457 
-8.64395e-05      14.2555     -134.659 
-5.46242e-05      7.66238      58.8832 
-7.35577e-06      3.26067     -91.4110 
7.32886e-06      6.01710     -80.8220 
-1.46719e-05      13.9507     -46.7436 
3.64036e-05      3.77375     -85.1408 
4.35959e-05      12.4959      143.003 
-3.65302e-05      12.1877      41.2732 
8.66866e-05      11.3342      25.6150 
3.61292e-05      11.7713      150.255 
-7.31625e-06      12.6156      134.487 
2.16764e-05      8.40552     -18.7358 
7.30872e-06      12.5383      144.281 
-7.33360e-06      11.9102     -40.0265 
4.31157e-05      11.8684     -43.7038 
-7.30149e-06      12.1587     -40.3969 
-1.45533e-05      9.56295      178.561 
1.45042e-05      7.14798      99.0173 
7.30974e-06      12.2627     -47.9093 
9.85201e-05      7.66069     -165.019 
-7.25840e-06      12.4420     -42.5900 
7.26459e-06      11.5746     -43.1795 
2.87059e-05      11.3994      148.121 
-7.89223e-05      10.9116     -28.8212 
-0.000121551      7.24639     -150.393 
-0.000129018      10.2456      4.03180 
-2.89064e-05      13.4786     -135.780 
-7.23708e-06      9.77306      58.1331 
-2.15376e-05      14.0226     -46.9060 
6.45859e-05      12.2346     -47.9135 
4.30806e-05      13.1862      138.137 
-5.01998e-05      11.6495      34.1548 
5.73304e-05      12.4760      143.275 
7.23902e-06      12.5832      140.289 
-2.15608e-05      4.47142      124.615 
-2.15605e-05      11.9252     -39.9662 
-5.01639e-05      9.73488      58.2690 
7.23964e-06      7.34117      29.0068 
7.21596e-06      5.18068      37.3131 
1.97534e-05      9.91511      24.8078 
1.43825e-05      11.5888     -43.1135 
-1.43693e-05      11.2293     -65.0310 
-2.87388e-05      12.2163      41.2819 
-4.29165e-05      9.41901     -70.5243 
-3.57697e-05      12.4283     -42.5213 
-1.40321e-05      7.30600     -38.2223 
1.43546e-05      10.5369     -67.5735 
-6.45139e-05      14.2706     -45.8522 
2.15159e-05      12.4490      145.340 
-8.57838e-05      12.4445      34.7882 
-2.86243e-05      11.5902     -122.456 
-7.18008e-06      13.9368     -46.8043 
-6.44116e-05      9.58589     -5.62892 
-2.14676e-05      11.1596      135.945 
7.17973e-06      12.7844      51.6065 
1.43099e-05      10.7726     -67.0535 
2.85898e-05      12.5988      140.348 
3.89745e-05      7.32346      29.0837 
-4.28893e-05      13.5072     -135.779 
2.14674e-05      3.75535     -84.8066 
-4.29173e-05      13.8307      135.000 
7.19102e-06      7.79466      129.899 
-7.16983e-06      9.58320      178.564 
7.15081e-06      9.89672      24.8571 
-1.42567e-05      9.99216      77.6327 
-3.56927e-05      10.4691     -162.777 
2.85270e-05      13.0576     -133.449 
7.15760e-06      3.64049     -169.549 
-2.75752e-05      9.13673      68.8260 
-1.43163e-05      12.2011      41.3447 
3.57086e-05      11.6395      59.9985 
-1.42995e-05      11.5173      133.170 
2.14074e-05      10.8611      132.090 
3.57083e-05      10.6765     -17.8912 
-7.13500e-06      7.41591      121.549 
-1.42879e-05      10.4194      47.6444 
-2.85008e-05      8.55356     -163.004 
7.13110e-06      3.25002     -166.474 
-7.13695e-06      10.1239     -165.469 
1.42760e-05      12.0457     -147.682 
-4.28948e-05      12.2297      41.3533 
2.14252e-05      11.3287     -39.9888 
-1.42788e-05      6.60699      46.5969 
7.13627e-06      3.64408     -169.248 
-7.13291e-06      10.7895      157.666 
1.42982e-05      3.78858     -51.8613 
-2.13942e-05      10.0992     -165.552 
1.43065e-05      13.1711      138.078 
7.13292e-06      12.4842      143.075 
-7.13869e-06      8.27337     -8.61736 
7.12687e-06      7.64112     -164.980 
7.13178e-06      10.1142     -72.3891 
7.11028e-06      10.2268      174.501 
-7.13260e-06      7.21165      173.152 
7.13315e-06      10.4839     -150.894 
-7.12117e-06      8.15058     -80.5359 
-2.14430e-05      10.9293     -28.7699 
6.70046e-05      3.66398     -169.307 
-1.36731e-05      5.22278     -137.323 
2.14395e-05      10.1940     -7.77998 
-2.14357e-05      14.2847     -45.7939 
7.15712e-06      8.76193     -6.81705 
1.42869e-05      13.1839     -133.649 
-7.13072e-06      13.3130     -136.644 
-7.12915e-06      9.16268      68.7580 
7.13276e-06      10.2249      174.614 
7.16420e-06      10.3674      152.545 
-7.15181e-06      9.40645     -70.3711 
-7.15954e-06      13.9022      44.5933 
7.15506e-06      11.6036     -43.0451 
-6.35188e-05      10.8730      159.430 
-3.96099e-05      9.57714     -48.3858 
-3.84243e-05      10.5841      124.141 
-1.52762e-05      7.30944     -37.9993 
-4.88258e-05      9.25845     -146.722 
0.000103439      7.76419      130.088 
4.49298e-05      10.2359      120.270 
-7.70084e-05      11.2134     -59.6839 
-0.000200285      11.5059      119.236 
6.70806e-05      13.2168     -39.3507 
-4.30968e-05      12.3086     -36.6093 
-2.27603e-05      9.18977      24.8366 
3.63266e-05      7.12888      63.1491 
-3.52673e-05      7.10759     -79.1314 
4.20155e-05      11.8488      142.338 
-2.88977e-05      9.57831     -48.5540 
7.59977e-06      8.43440     -58.8754 
-1.45729e-05      9.14926     -145.060 
7.52339e-06      9.95725     -45.8122 
1.45122e-05      6.18718      84.6206 
7.44174e-06      8.83973     -102.811 
-5.85816e-05      12.5685     -37.4336 
-2.15672e-05      13.5183     -48.5984 
-7.36100e-06      11.6344      42.6319 
1.45270e-05      13.2292     -39.4161 
-9.80920e-05      10.8798      159.334 
-1.99481e-05      8.13458     -80.3778 
4.75953e-05      8.86399     -102.909 
7.27875e-06      7.10220     -159.219 
1.43004e-05      10.4892     -49.8722 
-7.22824e-06      11.0010     -131.020 
-0.000107225      8.74361      1.70160 
-7.02065e-05      9.20816      24.7836 
3.86098e-05      9.56916      55.6470 
7.11884e-06      9.94273     -45.7308 
-3.28168e-05      9.80370      7.50307 
-8.90976e-05      5.72442     -170.143 
1.34574e-05      5.54440      44.1226 
2.02976e-05      11.4021      37.8760 
-6.30084e-05      10.4600      132.599 
0.000120043      12.4876      137.728 
-0.000117147      8.15382     -80.4007 
-5.76340e-05      10.3077     -55.3555 
0.000123936      11.1293     -156.937 
-5.63067e-05      6.82677      6.72897 
8.98802e-05      10.4863     -49.7193 
2.61704e-05      7.58893      85.0082 
-6.88339e-06      7.97867      116.179 
-6.84652e-06      10.8707      158.298 
2.60618e-05      3.56864     -116.285 
6.82556e-06      7.09050     -159.008 
3.24263e-05      10.3453      33.9679 
6.80782e-06      11.3926      147.984 
5.16378e-05      10.9081      151.649 
-2.58339e-05      12.2877     -36.7950 
-1.91182e-05      6.29350     -41.1326 
-8.42558e-05      10.2012      61.6761 
3.19441e-05      11.3760      147.932 
7.54728e-05      6.20735      84.6381 
5.70171e-05      7.11081      63.0753 
6.64367e-06      10.0574     -123.154 
-1.94726e-05      10.8594      158.159 
6.63113e-06      10.5068     -112.026 
-1.31311e-05      7.48788      121.568 
-7.55023e-05      8.76571      34.7770 
-1.90204e-05      9.98436      36.9379 
6.16719e-05      10.5412     -136.768 
6.56349e-06      9.57047     -6.96231 
-6.80045e-05      10.4480      47.6372 
0.000123123      8.11655      147.171 
-4.96676e-05      7.76808      126.310 
-3.67101e-05      11.0163     -130.951 
-4.39394e-05      9.15066      78.9131 
1.91474e-05      5.51083      3.53643 
-1.91221e-05      9.59173     -48.4632 
-1.28341e-05      6.32507     -174.922 
-6.49161e-06      10.4311     -162.712 
-1.27395e-05      13.5019     -48.4223 
4.28297e-05      11.1524     -140.458 
6.46086e-06      12.4481     -39.3934 
6.44670e-06      12.8549      47.6473 
-2.50563e-05      11.3452     -136.428 
5.45667e-05      7.91587      93.6197 
-6.35530e-05      10.8919      159.468 
-1.25951e-05      12.7740      136.333 
1.26093e-05      9.59058     -6.94764 
-6.67445e-05      7.50515      121.487 
-1.82759e-05      8.60424      155.999 
6.38283e-06      7.12871      99.0419 
-1.88028e-05      5.57039     -84.0229 
6.35902e-06      11.4859     -142.074 
-1.25414e-05      10.4372     -162.606 
6.34938e-06      13.4175      137.296 
0.000204680      12.4637     -39.3343 
-1.24075e-05      6.84929      6.87743 
1.24339e-05      7.19383     -160.006 
-2.45174e-05      8.62207      156.052 
3.67871e-05      7.32368     -71.8639 
1.23971e-05      7.99049      147.783 
-1.86513e-05      12.9757      39.3067 
1.85217e-05      7.25656     -131.202 
1.24102e-05      9.42766      175.618 
6.27148e-06      10.5018     -49.7908 
-1.85581e-05      9.64681      43.9915 
6.25898e-06      9.55472     -79.0210 
-6.25639e-06      12.0813     -124.137 
-1.24133e-05      11.2458      130.746 
-6.22816e-06      9.17685     -145.026 
1.23546e-05      3.22193     -167.080 
1.23596e-05      10.7096      62.0470 
-4.36227e-05      7.12749     -79.1621 
-6.21188e-06      12.5586     -135.387 
3.68417e-05      8.86837     -103.032 
6.21571e-06      10.5330     -112.083 
6.74458e-05      8.28257      99.0279 
6.19496e-06      3.75357     -85.1146 
3.78123e-05      3.86593      28.4205 
6.19705e-06      7.34294     -71.9131 
-4.23952e-05      12.1095     -124.163 
-6.17256e-06      11.0291     -131.028 
7.51035e-05      7.77970      129.992 
-9.89818e-05      11.2232     -59.5980 
-2.45037e-05      8.59960     -45.9439 
8.72262e-05      7.30576      29.1609 
6.12272e-06      5.53030      3.52396 
-6.11516e-06      13.4998     -48.3032 
6.10861e-06      7.89695      93.7757 
-6.12352e-06      7.70143     -110.361 
2.38235e-05      10.5126     -136.773 
6.08838e-06      13.4324      137.354 
-9.00342e-05      11.6493      42.5644 
-0.000107532      9.96817      37.0079 
-0.000100558      7.32193     -38.1242 
1.34800e-05      8.13295      147.245 
-2.55151e-05      12.3475      135.852 
-6.67382e-06      7.16184     -47.2631 
-9.72004e-05      9.12778      79.0097 
1.26279e-05      5.61808     -19.9864 
0.000144720      10.8054     -20.8150 
5.56650e-05      10.5256     -111.984 
0.000115919      10.8909      151.600 
-9.78296e-05      8.15207     -86.9079 
6.50964e-06      7.29628      29.0271 
6.83203e-05      9.13783      170.041 
-1.87977e-05      9.65592     -12.6819 
3.07145e-05      9.59305     -7.06776 
3.05695e-05      11.5751     -60.1574 
1.84577e-05      10.8127     -20.9153 
-6.23236e-06      8.61370     -45.8471 
3.60681e-05      7.08712      103.876 
4.90145e-05      9.28242     -65.6975 
-1.22885e-05      9.61816      43.9885 
4.78397e-05      5.65014      3.44913 
-6.16961e-06      7.14810     -47.3824 
1.22197e-05      11.6672      59.9621 
-0.000114397      12.9886      39.3758 
6.07761e-06      7.18719     -160.152 
6.05377e-06      9.26464     -65.6478 
-2.48515e-05      8.75075     -151.910 
6.05601e-06      9.55102     -79.1359 
-6.04774e-06      7.39929      121.628 
5.52908e-05      5.93332      49.9198 
6.02586e-06      7.26314     -27.1978 
-6.02399e-06      11.5182     -122.450 
5.99708e-06      10.4319     -102.623 
-5.99949e-06      5.62761      103.149 
6.79269e-05      3.84813      28.5641 
-4.95641e-05      9.28547     -146.687 
-5.56241e-05      12.3442     -36.3697 
7.85318e-05      10.4994     -49.6350 
-6.65496e-05      12.7307      133.727 
-4.84367e-05      9.61871      43.8178 
-4.93200e-05      12.7631     -38.1258 
-1.21807e-05      12.3242     -36.5552 
-3.03752e-05      12.5873     -135.386 
2.42580e-05      7.24512     -27.2710 
6.06500e-06      7.18033     -160.304 
-3.17280e-05      7.67287      58.7537 
-4.87011e-05      9.76938      83.1801 
-4.83480e-05      7.88917     -32.6819 
6.10562e-06      12.0365      125.326 
-3.60544e-05      8.60452     -153.792 
-1.20034e-05      5.55127     -167.517 
1.20485e-05      7.15444     -160.402 
1.88578e-05      9.85789     -174.995 
-3.05564e-05      10.7077      140.990 
1.80145e-05      8.45541     -58.6403 
6.10646e-06      10.4276     -102.518 
-1.80223e-05      7.55589      138.970 
6.04189e-06      8.33691      47.4294 
-2.95826e-05      6.70641      98.0594 
6.03813e-06      5.51575      44.1181 
4.76797e-05      12.0317      125.460 
-5.95975e-06      7.38205      121.711 
1.76900e-05      12.8262      47.6533 
-2.39375e-05      8.58605     -46.0375 
2.98707e-05      10.4042     -102.432 
3.59850e-05      8.28578      99.1663 
6.02892e-06      8.44489     -58.7577 
1.19139e-05      7.14792     -160.549 
5.99832e-06      7.10245      91.4530 
-1.77467e-05      10.8817      158.431 
2.36844e-05      11.1001     -63.3414 
-2.41809e-05      8.76863     -151.972 
1.77963e-05      11.4635     -60.5287 
2.39293e-05      7.33001     -71.7134 
2.37640e-05      6.22677      84.6549 
1.24513e-05      7.12195      91.4490 
-1.83534e-05      7.54062      138.869 
-1.21270e-05      10.4120     -33.7210 
1.18954e-05      11.6769      59.8793 
-5.96524e-06      11.8723     -142.667 
5.93644e-06      7.07159     -158.949 
-1.17055e-05      10.2967     -55.4448 
5.87784e-06      7.13181      99.1967 
-5.86629e-06      11.3599     -136.499 
1.22334e-05      9.83771     -174.985 
-1.20577e-05      8.73795      34.7477 
-6.00172e-06      4.76102     -120.550 
5.98292e-06      10.3791     -119.428 
1.18134e-05      7.33333      29.2220 
-1.16865e-05      9.60521      43.7339 
1.17420e-05      11.2988     -27.7461 
-5.84151e-06      10.3515      132.103 
6.24597e-06      7.12249      91.6119 
-6.16789e-06      7.69020      58.8320 
6.04182e-06      10.3999     -102.323 
5.97120e-06      6.47714     -135.249 
-1.18153e-05      11.8568     -142.609 
1.18426e-05      11.4535     -60.6169 
-5.88089e-06      8.00235     -105.807 
5.87051e-06      5.52987      44.2688 
5.82175e-06      9.86352      74.8378 
! Tentative model.
! Flux (Jy) Radius (mas)  Theta (deg)  Major FWHM (mas)  Axial ratio   Phi (deg) T \
! Freq (Hz)     SpecIndex
-6.45631e-06      10.8802      159.333 
