! Center RA: 12 21 31.69052,  Dec: +28 13 58.50011 (2000.0)
! Established model.
! Flux (Jy) Radius (mas)  Theta (deg)  Major FWHM (mas)  Axial ratio   Phi (deg) T \
! Freq (Hz)     SpecIndex
 0.0290184    0.0474342      71.5651 
 0.0264120    0.0618466      75.9638 
 0.0189529     0.347922      82.5686 
0.00244168    0.0912414      80.5377 
0.00301111     0.109202      74.0546 
0.00219459     0.333054      82.2348 
 0.0149149     0.772172      114.075 
0.00174950     0.123693      75.9638 
0.00419236     0.331361      84.8056 
0.00101848     0.138293      77.4712 
0.00439281     0.346302      85.0303 
0.000330391    0.0948683      71.5651 
0.00128688     0.152971      78.6901 
0.000634832    0.0807775      68.1986 
0.000310738     0.167705      79.6952 
0.000307547     0.156605      73.3008 
0.00280877     0.171026      74.7449 
0.00171011    0.0670820      63.4349 
0.00586070     0.185540      75.9638 
0.00312914    0.0540833      56.3099 
0.00335169     0.345326      87.5104 
0.00598296     0.792023      114.624 
0.000440514     0.360312      87.6141 
0.000579217     0.435259      91.9749 
0.00217497    0.0424264      45.0000 
0.000212034     0.330341      87.3974 
0.000211364     0.778412      115.084 
0.00104829     0.450999      93.8141 
0.000790074     0.315000      90.0000 
0.000615499     0.467172      95.5275 
0.00186610     0.300000      90.0000 
0.000203613     0.503115      100.305 
0.000782113     0.542079      104.421 
0.00248501     0.175570      70.0169 
0.000556352     0.560446      105.524 
0.00298017     0.189737      71.5651 
0.00137693    0.0335410      26.5651 
0.00152904     0.579008      106.557 
0.000815753     0.436033      93.9452 
0.000168162     0.285000      90.0000 
0.000628397     0.315357      92.7263 
0.00220734     0.300375      92.8624 
0.00152144    0.0474342      18.4349 
0.00152641     0.452244      95.7106 
0.00142853     0.597746      107.526 
0.000910738     0.805683      114.179 
0.00244739     0.181246      65.5560 
0.00118730     0.583459      107.969 
0.000575762     0.799656      113.199 
0.00113125    0.0300000      0.00000 
0.00108433     0.813465      112.782 
0.000649226     0.437321      95.9061 
0.00119381     0.616644      108.435 
0.00406313    0.0450000      0.00000 
0.000880768     0.821721      111.413 
0.00110567     0.602433      108.886 
0.000359293     0.453982      97.5946 
0.00100937     0.439118      97.8533 
0.000121188     0.791596      117.051 
0.000404577     0.569210      108.435 
0.000813630     0.830437      110.072 
0.000233675     0.798530      118.009 
0.000437087     0.285394      93.0128 
0.000331386     0.316425      95.4403 
0.000112915     0.785318      118.523 
0.00138797     0.844541      109.722 
0.000730768     0.792591      119.476 
0.000209476     0.441418      99.7824 
0.00228793     0.240468      86.4237 
0.000102188     0.645174      107.592 
0.000101003     0.630892      108.004 
0.000100725     0.333054      97.7652 
0.000100043     0.214767      77.9052 
9.88917e-05     0.426644      100.125 
0.00111918     0.255000      90.0000 
0.000188162     0.429535      102.095 
0.000222483     0.684105      105.255 
0.00113495     0.858676      109.385 
0.000642938     0.800078      120.411 
0.000453108     0.174929      59.0362 
0.00126266     0.588260      109.359 
9.54039e-05     0.301496      95.7106 
0.000440126     0.698588      104.931 
0.000186913     0.414879      102.529 
0.000441088     0.863771      110.323 
0.000354877     0.465242      91.8476 
0.000388583    0.0600000      0.00000 
0.000175639     0.400250      102.995 
0.00141262     0.159452      48.8141 
0.00278660    0.0474342     -18.4349 
8.61334e-05     0.713092      104.621 
0.000252914     0.787178      120.964 
0.000168492     0.418390      104.534 
0.000838799     0.465000      90.0000 
0.00230898     0.877852      109.983 
0.000239580     0.403887      105.068 
0.00135216     0.795000      121.891 
0.000853215     0.709454      103.449 
0.000574913     0.422404      106.504 
0.000739997     0.694874      103.736 
0.000567320     0.465242      88.1524 
0.000127062     0.408044      107.103 
0.00109001     0.480234      88.2101 
0.000650262     0.426907      108.435 
0.000756976     0.159452      41.1859 
6.28374e-05     0.409420      61.5571 
0.00143784     0.803026      122.800 
0.000827331     0.416773      59.7436 
0.000980806     0.891964      109.654 
0.00126294      2.15087      102.485 
0.00120782    0.0335410     -63.4349 
0.000659149     0.412704      109.093 
0.000739457     0.897120      110.556 
9.53328e-05      2.16878      102.787 
0.000226786     0.169706      45.0000 
0.000316165     0.691466      102.529 
8.73920e-05     0.226991      82.4054 
0.000174598     0.593401      110.726 
0.000128776     0.480937      86.4237 
4.35774e-05    0.0618466     -14.0362 
4.24427e-05     0.424529      57.9946 
0.00134841     0.218403      74.0546 
0.000671583     0.684270      116.003 
0.000250032     0.697782      115.463 
0.000179546     0.806381      108.435 
0.000172298     0.820625      108.104 
0.00101778      1.97209      104.988 
0.00105814     0.232863      75.0686 
0.000408227     0.450000      90.0000 
0.000581950     0.825409      109.093 
0.000212671     0.690978      117.121 
0.000157645     0.435259      88.0251 
0.000243139     0.697943      118.217 
0.000333846     0.839598      108.759 
0.000443808      2.12989      101.785 
4.73157e-05    0.0618466      14.0362 
0.000392460     0.450250      88.0908 
9.06652e-05     0.718279      118.706 
4.52330e-05     0.705160      119.291 
0.000332701     0.725603      119.745 
4.30715e-05      1.95760      105.101 
0.000280625      1.95375      104.676 
0.000153755      2.13301      102.179 
0.000154112      2.14767      102.095 
0.000153229    0.0335410     -26.5651 
0.000149424     0.733161      120.763 
7.56427e-05     0.673832      106.821 
3.82144e-05    0.0948683      18.4349 
3.78302e-05     0.368951      63.4349 
0.000109704      1.93924      104.789 
0.000107040     0.114237      23.1986 
0.000104629     0.669645      105.593 
3.57166e-05     0.382426      64.4400 
0.000625213      2.04710      118.443 
7.02734e-05     0.740945      121.759 
6.96287e-05      1.93547      104.359 
0.000250261     0.480000      90.0000 
0.000100201      2.13622      102.572 
3.40902e-05     0.753741      121.159 
0.000131299     0.134164      26.5651 
6.69490e-05      1.92094      104.470 
6.51646e-05     0.244182      79.3803 
0.000129068     0.761610      122.125 
9.57284e-05      1.90642      104.583 
0.000326259    0.0474342     -108.435 
6.38635e-05      2.15416      102.875 
9.32925e-05     0.128160      20.5560 
0.000120915     0.665770      104.349 
3.11512e-05      2.13954      102.965 
3.08037e-05      1.93941      102.961 
0.000148147      2.15755      103.263 
6.05086e-05     0.782304      122.471 
0.000176372      2.06030      118.244 
6.01555e-05      1.89190      104.697 
0.000118469     0.906104      109.335 
0.000198764     0.147733      23.9625 
8.59365e-05      1.96225      101.911 
0.000141097     0.470771      112.479 
2.90344e-05     0.396295      60.5241 
0.000111692      1.87740      104.813 
0.000140360     0.911181      110.225 
0.000333508      2.06744      118.610 
2.80892e-05      2.16104      103.650 
0.000185796     0.815675      122.229 
2.76242e-05      2.11585      99.7962 
0.000125534     0.662212      103.092 
2.72658e-05      2.16463      104.036 
7.65695e-05     0.403887      58.6713 
0.000564548     0.925270      109.904 
5.31589e-05      2.18285      104.323 
0.000152969     0.495227      88.2643 
0.000400226    0.0670820     -116.565 
5.27866e-05      1.95921      101.482 
0.000152074     0.476707      114.146 
7.84380e-05     0.142302      18.4349 
0.000126165      1.86290      104.931 
2.59329e-05      2.11335      99.3955 
2.57165e-05      2.20112      104.604 
2.53961e-05      1.97391      101.395 
7.45460e-05      2.31044      103.134 
2.52793e-05     0.161555      21.8014 
2.49539e-05      2.18661      104.704 
0.000233727     0.156605      16.6992 
4.90235e-05     0.828402      121.675 
7.18715e-05      1.97100      100.968 
2.40941e-05      2.19046      105.083 
7.01879e-05      2.32505      103.050 
0.000223249     0.836376      122.550 
0.000198194      1.84841      105.051 
0.000135182     0.510221      88.3153 
2.35810e-05      2.10866      98.5912 
4.67600e-05     0.483037      115.769 
2.31186e-05      2.20887      105.357 
4.56410e-05      2.08062      118.413 
8.59809e-05     0.411886      56.8887 
4.49887e-05      1.93878      117.160 
0.000129871     0.463060      114.905 
2.26568e-05      2.10647      98.1878 
4.46086e-05      2.33634      102.609 
0.000400741      2.03027      124.160 
0.000106278      1.96820      100.539 
4.36991e-05      2.24585      105.893 
8.42874e-05      2.09383      118.217 
2.17467e-05      2.33966      102.967 
4.26696e-05      1.91859      116.966 
4.04329e-05     0.658976      101.821 
8.38396e-05      2.54315      104.692 
6.28604e-05     0.171026      15.2551 
0.000132508      2.35098      102.529 
7.96920e-05      2.10439      97.7836 
0.000229748      2.55766      104.607 
0.000222517     0.525214      88.3634 
6.10886e-05     0.844541      123.408 
2.05605e-05      2.30766      105.843 
2.05303e-05      1.91184      116.565 
0.000257704    0.0750000     -126.870 
0.000116808     0.469574      116.565 
0.000242216     0.939388      109.592 
9.73897e-05     0.167705      10.3048 
3.93046e-05      1.89843      116.768 
0.000246838      1.83393      105.173 
0.000151070     0.857103      122.856 
5.73596e-05      2.10706      118.025 
5.72895e-05      1.96552      100.109 
0.000108646     0.420268      55.1755 
7.46798e-05      1.89173      116.362 
3.79234e-05      2.32621      106.098 
0.000102468      1.95075      100.187 
5.43520e-05     0.182483      9.46232 
3.63755e-05     0.449500      115.710 
3.61453e-05      2.08753      97.4314 
1.79223e-05      2.11415      118.383 
0.000198126      2.57218      104.522 
0.000199694     0.865332      123.690 
1.77965e-05      2.34062      105.996 
1.77728e-05      2.01788      124.399 
0.000195089     0.456207      117.408 
1.76563e-05      1.87830      116.565 
0.000116916     0.180624      4.76364 
0.000111639      2.12736      118.191 
8.22961e-05      2.08565      97.0228 
3.43256e-05      1.87164      116.154 
1.71226e-05      2.34480      106.348 
0.000247576     0.944524      110.450 
1.69592e-05     0.641327      100.784 
6.51149e-05      1.85818      116.358 
4.78431e-05      2.36563      102.450 
0.000152397    0.0848528     -135.000 
1.62645e-05      2.35920      106.246 
4.26592e-05     0.429010      53.5308 
1.60598e-05      2.47264      106.566 
0.000216430     0.540208      88.4089 
1.59675e-05      1.90972      124.439 
8.98365e-05     0.195576      4.39871 
7.40848e-05     0.417043      52.3058 
8.85111e-05      1.83810      116.147 
9.82973e-05      1.94815      99.7524 
0.000154135     0.638690      99.4623 
1.53855e-05      2.45826      106.666 
1.53656e-05      1.88045      123.944 
0.000159295     0.886143      123.959 
5.90374e-05      2.08387      96.6135 
0.000193727      2.58671      104.439 
1.50678e-05      2.36344      106.595 
0.000227869      1.81946      105.297 
5.73745e-05      2.36244      102.095 
5.65816e-05      2.46261      107.000 
1.47040e-05      1.85964      123.818 
0.000196400     0.442945      118.301 
2.73368e-05      2.24424      107.103 
5.54665e-05     0.195000      0.00000 
2.75497e-05      1.83055      123.299 
7.80861e-05      2.14059      118.002 
0.000105544    0.0960469     -141.340 
7.95580e-05      2.08219      96.2034 
7.90798e-05      1.81803      115.931 
0.000103162      2.04270      123.923 
0.000189587     0.958593      110.136 
0.000152762     0.894609      124.756 
0.000113894     0.210000      0.00000 
9.73455e-05      2.35934      101.739 
6.21209e-05      2.46703      107.333 
1.29643e-05      1.80162      122.764 
6.02498e-05     0.426380      50.7106 
1.26486e-05      1.78903      123.024 
0.000233207      2.60124      104.357 
2.44631e-05      1.76828      122.881 
2.43581e-05      2.08062      95.7928 
0.000103811     0.108167     -146.310 
5.84639e-05      1.81153      115.504 
1.21776e-05      2.24870      107.468 
3.45462e-05      1.93337      99.8277 
6.92288e-05      1.16083      25.2405 
5.84726e-05      1.18964      113.009 
5.70937e-05      2.06423      95.4206 
1.18068e-05      1.76018      122.471 
0.000110323     0.903244      125.538 
4.49461e-05      2.05111      124.271 
7.27332e-05     0.463303      119.055 
5.66341e-05     0.225000      0.00000 
4.50360e-05      2.15385      117.814 
3.39510e-05      1.73948      122.320 
9.38372e-05      2.23440      107.583 
3.33943e-05      2.47154      107.665 
7.62635e-05      1.26303      105.852 
0.000196802      2.87065      123.275 
0.000180395     0.438092      51.9530 
7.33336e-05     0.738055      127.569 
5.36133e-05      1.20346      112.730 
3.96915e-05     0.450250      119.982 
1.09999e-05      3.89873      129.693 
9.13414e-05      2.35634      101.381 
5.24465e-05      1.79154      115.278 
4.25303e-05      1.71879      122.164 
0.000121348      3.90833      129.862 
0.000229690      1.14089      24.8804 
7.20731e-05      2.06287      95.0058 
3.17035e-05     0.225499     -3.81407 
6.24862e-05      3.11773      106.778 
0.000153244     0.120934     -150.255 
2.79027e-05     0.953533      109.290 
3.13429e-05      2.16089      118.166 
0.000108835     0.540000      90.0000 
4.04263e-05      2.47614      107.996 
1.04166e-05      1.24536      99.0085 
2.04298e-05     0.717025      127.349 
4.92792e-05      2.06352      124.037 
0.000184269      3.22709      101.258 
0.000108612     0.240468     -3.57633 
3.65180e-05      1.93087      99.3891 
3.01347e-05      1.71086      121.739 
2.98776e-05      1.24310      98.3257 
5.64520e-05      1.80499      105.422 
3.93044e-05     0.491350      12.3391 
0.000121108     0.912044      126.304 
1.99711e-05      1.26721      106.504 
0.000108550      2.17412      117.979 
0.000159609      1.20934      113.385 
9.95020e-06      3.18541      106.131 
9.94165e-06      1.61673      117.041 
7.24772e-05     0.621550      98.3257 
7.43263e-05      3.10775      107.123 
8.14654e-05      1.60339      117.284 
2.73507e-05      1.69021      121.574 
9.63943e-06      2.04551      94.2054 
2.78226e-05      1.27155      107.152 
1.88708e-05      1.78519      114.842 
1.89100e-05      1.24102      97.6404 
0.000130813      4.40684      111.150 
3.33866e-05      3.19982      106.056 
8.03978e-05      1.59657      116.806 
0.000171289     0.747295      128.480 
2.78952e-05      2.06161      94.5905 
5.33707e-05      3.12094      118.413 
0.000135526     0.488365      10.6197 
2.71674e-05      2.48081      108.325 
2.74367e-05      2.87503      122.861 
6.79881e-05      3.67325      128.367 
0.000147744      3.91985      129.721 
9.32336e-05      2.35342      101.023 
3.45599e-05      2.22991      107.216 
0.000131701      2.59201      127.003 
6.00814e-05      2.04446      93.7861 
2.66568e-05      1.23911      96.9530 
0.000152933      2.05959      124.616 
0.000280581      2.59504      126.539 
3.39199e-05      1.77159      115.046 
4.17963e-05      2.89154      120.556 
0.000105555      3.21424      105.982 
2.49631e-05      1.27606      107.796 
3.25100e-05      1.76529      114.605 
0.000159081      1.40112     -15.5241 
0.000231134      2.61577      104.275 
0.000205715     0.933019      126.501 
7.02406e-05      2.48557      108.654 
8.51176e-06     0.429796      119.249 
5.64532e-05      2.34624      120.336 
0.000158900      1.72187      108.277 
3.93395e-05      1.23739      96.2635 
0.000468953     0.134164     -153.435 
0.000151930      4.38744      111.038 
0.000223885      5.03904      111.295 
4.64811e-05     0.416773      120.256 
0.000109703      3.12810      118.654 
6.21562e-05      3.11220      107.387 
8.21753e-06     0.636396      98.1301 
9.54113e-05      1.05385      94.8991 
6.43008e-05     0.921005      127.057 
0.000204116      5.15269      120.821 
0.000215858      3.22420      100.996 
4.30973e-05      1.69812      122.005 
7.93699e-06      2.06047      94.1748 
0.000187326     0.447493      50.4403 
1.55242e-05      2.18738      117.795 
4.49176e-05      2.04353      93.3665 
2.30601e-05      4.39285      111.220 
4.93832e-05      3.09789      107.470 
9.98519e-05      3.67086      128.696 
0.000195726     0.503115      10.3048 
2.97364e-05      4.64973      115.408 
8.13768e-05     0.255441     -3.36646 
0.000260078      2.88394      120.299 
9.81178e-05      2.35060      100.665 
9.00745e-05      1.28072      108.435 
0.000154960      2.33870      120.018 
4.77615e-05      1.60997      116.565 
3.59227e-05      1.41962     -15.9454 
0.000435239      3.96139      107.406 
6.18904e-05      5.04451      111.453 
2.15561e-05      2.22471      108.068 
0.000130717      4.65619      115.574 
0.000196973      3.92946      129.890 
5.68321e-05      1.23584      95.5722 
3.87734e-05      2.04270      92.9464 
8.01726e-05      1.58433     -18.7780 
0.000158765      3.22866      105.909 
6.28778e-05      2.49041      108.981 
3.23266e-05      2.05943      93.7586 
6.46609e-05     0.424529      122.005 
3.87031e-05     0.942019      127.235 
1.97157e-05      1.21537      114.034 
9.24527e-05      3.97571      107.341 
2.55946e-05     0.619556      96.9530 
1.95164e-05      2.22941      108.435 
0.000336598     0.774355      68.4047 
0.000115599      1.84201      149.676 
0.000130745      3.10243      107.734 
3.09651e-05      1.03771      94.1446 
3.12335e-05      4.46411      114.412 
7.12759e-05      1.15451      24.5672 
6.31367e-06      2.34600      126.943 
4.08652e-05      1.68542      122.276 
6.03688e-05      1.05268      94.0856 
5.82663e-05      2.35505      127.235 
2.36651e-05     0.932537      11.1292 
2.28590e-05      1.60332      116.086 
1.76965e-05      1.69739      3.03940 
1.12195e-05      1.75166      114.809 
2.70963e-05      2.22491      109.290 
2.31167e-05      4.98420      116.642 
3.76659e-05     0.726223      128.290 
5.80300e-05      2.85812      123.440 
4.36164e-05      2.05850      93.3419 
5.97784e-05     0.271662     -6.34019 
1.74193e-05      4.44425      114.316 
2.20091e-05     0.948683      108.435 
5.37764e-05      4.38208      110.854 
6.86063e-05      1.68241      3.06649 
2.16832e-05      2.04198      92.5261 
4.32927e-05      1.45593      117.621 
1.56266e-05     0.604669      97.1250 
1.12941e-05      4.99092      116.411 
0.000231251      1.85497      149.910 
0.000124740      4.45045      114.492 
3.69238e-05      3.66860      129.026 
5.16064e-05     0.947259      10.9541 
2.35166e-05      2.22000      108.925 
6.74912e-05     0.411886      123.111 
9.00528e-05      4.45906      107.825 
4.68494e-05      5.14502      120.677 
5.44754e-05      3.13532      118.895 
2.08752e-05      2.49533      109.306 
9.92524e-05      1.70763      108.435 
5.50905e-05      1.23447      94.8793 
0.000139289      4.99761      116.565 
5.31276e-05      2.33311      100.371 
0.000135591      2.04727      124.854 
3.12838e-05     0.543323      173.660 
1.37128e-05      1.69347      122.705 
6.63161e-05      1.60339     -19.1130 
2.37599e-05      1.70611      122.433 
1.47183e-05      2.02550      91.2730 
0.000132226     0.558234      173.830 
2.81246e-05      1.44265      117.897 
4.31115e-05      3.93909      130.057 
0.000166496      5.15793      120.592 
9.30256e-05      1.05171      93.2705 
3.81508e-05     0.934465      108.726 
2.34895e-05     0.303356     -8.53077 
3.00229e-05      3.65917      128.843 
1.83775e-05      2.50949      109.193 
4.95885e-05      5.03361      111.136 
1.38443e-05      2.07543      94.1446 
4.45185e-05      1.38667     -15.6900 
2.40294e-05      4.17143      110.194 
4.82409e-05      1.66743      3.09406 
4.69831e-06      2.01006      90.4276 
1.99056e-05      1.75801      115.253 
5.09428e-05     0.961990      10.7843 
2.24705e-05     0.735612      129.207 
1.36771e-05      1.37289      123.864 
4.63290e-06      1.99506      89.5692 
9.17983e-05      4.26436      108.244 
0.000117357      3.95059      129.917 
7.90513e-05      1.28554     -34.0609 
4.54846e-06      1.99523      89.1385 
2.98206e-05     0.335410     -10.3048 
0.000135130      1.98091      88.2643 
0.000173717      4.47335      107.767 
4.77543e-05      2.36415      127.524 
2.92993e-05      1.38130      124.380 
6.04035e-05      3.12950      119.268 
7.77271e-06      3.65218      128.329 
6.40674e-05      1.26650      108.650 
8.84511e-05      3.36916      106.821 
1.62425e-05      3.97126      107.135 
6.25684e-05      3.45902      127.069 
4.04018e-05      2.09276      94.9342 
0.000141515      4.43059      114.396 
4.74400e-05      1.68542      106.015 
1.24091e-05      2.51446      109.516 
2.46743e-05      5.01962      111.197 
7.96178e-06      4.40145      110.967 
7.99537e-05      1.61757     -18.9390 
2.58715e-05      2.50032      109.631 
2.26417e-05      2.31569      100.072 
7.06730e-05     0.353058     -12.2648 
1.57164e-05      5.01422      111.038 
7.15133e-05      1.65245      3.12213 
2.42641e-05      1.70162      123.130 
1.13063e-05      1.40216      124.540 
1.76174e-05      2.33123      119.699 
4.32178e-05      5.00022      111.099 
0.000163640      1.27720     -33.5034 
3.53815e-05     0.976729      10.6197 
6.47493e-05      3.20663      100.784 
5.63551e-05      1.23329      94.1849 
1.76355e-05      5.22551      124.237 
2.39798e-05      1.41072      125.042 
7.59028e-05      2.86641      123.690 
4.28329e-05      1.05096      92.4540 
6.81313e-05     0.573149      173.991 
0.000108971      3.96023      130.083 
1.81762e-05      1.42508    -0.603091 
2.87214e-05      2.37332      127.811 
2.56348e-05      3.96687      106.928 
1.32539e-05      4.99772      116.181 
7.99644e-06      1.44973      118.421 
1.28754e-05      2.31311      99.7067 
9.78524e-06      4.52657      112.401 
1.96892e-05      4.99484      110.939 
9.70911e-06      3.33641      118.754 
9.63776e-05     0.781297     -176.698 
4.25041e-05      2.50540      109.954 
4.46815e-05      5.23397      124.373 
1.54103e-05      2.22010      107.700 
4.45105e-05      1.69739      93.0394 
8.43610e-05      5.00436      116.335 
3.22310e-06      3.66442      129.685 
4.87778e-05     0.988863      9.60520 
6.37099e-05      2.63031      104.195 
3.17705e-06      4.98084      111.000 
5.70254e-05     0.924175      125.754 
8.71516e-05      1.63748      3.15072 
1.45893e-05      2.35170      119.836 
1.21308e-05      5.08642      111.268 
0.000128317      1.86254      149.511 
2.05234e-05      1.41938      125.538 
9.24747e-06      4.97548      110.839 
6.12284e-05      4.25968      108.052 
6.33854e-05      1.03598      92.4896 
3.10216e-05      3.13687      119.507 
1.16218e-05      3.67402      129.865 
7.32644e-05      3.38352      106.748 
2.04384e-05      2.11047      95.7106 
2.32629e-05      3.95693      107.199 
4.22164e-05      4.93007      109.924 
2.09963e-05      4.54616      112.504 
3.84319e-05      4.19069      110.316 
4.22576e-05      1.60780     -30.8721 
5.98254e-06      3.32922      118.528 
1.47315e-05     0.371079     -14.0362 
1.81570e-05      1.63176     -18.7681 
2.77491e-05      2.29583      99.4008 
2.92444e-06     0.457193      48.9909 
5.79251e-06      3.97865      105.975 
2.54138e-05      3.44706      127.219 
4.16267e-05      3.34241      118.405 
2.38006e-05      2.38255      128.096 
8.39986e-06      5.10584      111.364 
3.17072e-05     0.445982      47.7263 
5.38449e-05     0.385649     -13.4957 
5.00505e-05      3.98495      105.501 
3.02341e-05      1.84835     -13.1340 
1.71402e-05      2.21559      107.331 
7.87313e-06      1.68908      123.408 
1.52961e-05      5.10040      111.207 
9.92874e-06      1.42815      126.027 
2.09667e-05      3.66252      130.016 
3.54436e-05      5.25482      124.416 
5.98654e-05      4.91597      109.983 
1.17598e-05      1.77799      115.484 
1.20260e-05      2.34427      119.518 
4.62559e-05      3.96990      130.249 
2.99933e-05      1.00366      9.46232 
2.54236e-05      3.95161      107.678 
2.27403e-05     0.556821      175.365 
1.16527e-05      1.47611      127.569 
6.85881e-06      3.19570      105.798 
1.11425e-05      4.64266      115.654 
2.46707e-05      5.23154      112.595 
7.01772e-06      2.85394      123.857 
9.18988e-06      2.39183      128.379 
1.13567e-05     0.389423     -15.6422 
2.42683e-05      2.51056      110.276 
-7.22835e-05      2.82323      129.611 
1.96961e-05     0.782304     -175.601 
8.80828e-06      3.09342      107.205 
2.30474e-06      1.48530      128.027 
1.30711e-05      4.26815      112.961 
1.94013e-05      1.03543      91.6603 
4.32068e-06      1.41008    -0.609507 
1.92768e-05      3.98097      105.293 
1.49322e-05      3.39789      106.675 
2.18613e-06      1.21731      93.5323 
4.30454e-06      1.36821     -15.2551 
6.33691e-06     0.707549      21.1247 
4.21348e-06     0.436033     -26.5651 
4.18206e-06      2.59101      129.126 
2.09445e-06      1.45693      118.940 
2.07184e-06      3.18911      100.570 
2.07118e-06      2.21116      106.960 
