! Center RA: 12 21 31.69053,  Dec: +28 13 58.50012 (2000.0)
! Established model.
! Flux (Jy) Radius (mas)  Theta (deg)  Major FWHM (mas)  Axial ratio   Phi (deg) T \
! Freq (Hz)     SpecIndex
  0.110050      0.00000      0.00000 
 0.0209500    0.0286526      135.000 
0.00358832    0.0202604      90.0000 
0.00202246    0.0828082      104.162 
0.00461663     0.101837      101.476 
0.00267840    0.0202604     -90.0000 
0.00142619    0.0562440      135.000 
0.000792244    0.0446338      116.996 
0.000496873    0.0446338      153.004 
0.000719708    0.0202604      180.000 
0.00200460    0.0397705      180.000 
 0.0100730     0.121759      99.5784 
0.00277362    0.0286526     -135.000 
0.00550066    0.0446338     -153.004 
0.00262742     0.141777      98.2159 
0.000331894     0.297155      109.625 
0.00109740     0.323277      111.801 
0.00511868    0.0446338     -116.996 
0.000587690     0.341468      110.586 
0.000966118     0.367749      112.431 
0.00200133     0.394056      113.929 
0.00120993     0.278155      111.026 
0.00108258     0.411965      112.829 
0.00163973     0.120062      90.0000 
0.000394704     0.253192      108.489 
0.000297524     0.417588      106.709 
9.98873e-05     0.420241      115.375 
0.000917378    0.0397705     -90.0000 
0.000529897     0.431906      103.360 
0.000189522     0.429314      117.819 
9.18349e-05     0.438758      120.073 
9.09992e-05     0.427819      100.817 
9.05402e-05    0.0998015      90.0000 
0.000810642     0.159832      90.0000 
0.000213869    0.0286526      45.0000 
0.00183370     0.181229      96.4188 
9.28788e-05     0.392593      104.727 
0.000443706     0.412220      104.011 
0.000495235     0.398226      107.547 
8.66652e-05    0.0202604      0.00000 
0.00138403      2.06629      104.576 
8.09107e-05    0.0446338      26.9958 
0.000230085     0.450910      102.787 
0.000225837    0.0720098      33.5245 
0.000148567     0.404795      110.283 
0.000216294     0.386554      111.285 
0.000805209     0.466942      99.9013 
0.000524041    0.0896014      26.3505 
0.00147932     0.180093      90.0000 
0.000649324    0.0600310     -90.0000 
0.000692388      2.08094      103.896 
0.000720365     0.486913      99.4914 
0.000118591    0.0633577     -108.650 
0.000338671     0.107434      21.7271 
0.000487491     0.483985      97.1250 
0.000115773      2.07148      105.119 
0.000539333     0.402700      116.565 
0.00150377    0.0828082     -104.162 
0.000111199      2.05787      105.785 
0.000107702      2.09606      103.245 
0.000106669      2.06348      106.326 
5.29176e-05     0.101837      11.4755 
0.000203673      2.09151      102.705 
0.000606741     0.121759      9.57842 
0.000152813      2.04404      106.486 
0.000655581      2.04988      107.029 
0.000414839     0.412159      119.085 
0.000233721     0.513977      76.4913 
0.000324667      2.11055      102.588 
0.000325282     0.519084      74.3163 
0.000128055      2.10623      102.051 
0.000321325     0.421988      121.401 
0.000433850      1.73671      104.667 
0.000601150    0.0802914     -90.0000 
0.000160050      2.13033      102.470 
0.000640941     0.141777      8.21587 
0.000815400     0.490508      101.740 
0.000370752      1.92617      105.038 
0.000945588     0.101837     -101.476 
7.57344e-05      2.15454      102.879 
0.000423425      2.05568      107.549 
0.000315416     0.432889      123.690 
0.000451284     0.524694      72.2647 
0.000305242      2.17356      102.765 
0.00108120      1.73187      104.042 
0.000907319      2.49505      102.030 
3.51320e-05      2.17796      103.265 
9.75658e-05      2.51414      101.937 
0.000213405     0.444008      125.785 
0.000388324    0.0998015     -90.0000 
0.000474297     0.201375      95.7743 
0.000301947     0.721469      93.1600 
0.000279281      2.19333      102.648 
5.94350e-05     0.140322      0.00000 
0.000563263     0.159832      0.00000 
0.000334260     0.742313      94.6386 
0.000160596     0.456152      127.850 
0.000376114     0.504899      56.3335 
5.50823e-05      2.08115      107.912 
0.000339710      1.92120      104.476 
0.000358234      2.08747      108.441 
0.000379321     0.720656      91.6110 
0.000117916      2.23377      106.651 
2.51133e-05      1.80726      95.0738 
0.000231042     0.484006      128.327 
0.000115667      2.20466      101.505 
0.000989185      4.36248      102.446 
0.000250762     0.531217      70.1828 
0.000233817      1.80564      94.4571 
0.000511578     0.513977      103.509 
0.000200214      3.55807      102.002 
0.000469297      6.19014      104.978 
0.000166222      2.22001      100.911 
0.000174530     0.905879      112.039 
0.000104171      2.10224      101.531 
0.000288367      3.91467      108.161 
0.000966710      2.16046      90.5373 
0.000147868      7.74115      108.059 
0.000104363     0.495028      104.036 
0.000239332      1.78396      93.8590 
0.000335075     0.496341      130.094 
9.08834e-05      2.23966      107.148 
0.000268958      2.27521      167.311 
0.000793816      3.12420      87.0675 
0.000282993     0.948403      114.943 
0.000601127      2.23215      167.576 
0.000127272      3.55407      101.694 
0.000546434      2.09372      108.948 
0.000115914      9.28736      107.031 
0.000431494      1.19830      104.506 
0.00112670      5.64646      112.933 
0.000352551      7.73512      107.922 
1.96673e-05      3.72110      104.636 
0.000800539      9.29309      107.146 
0.000196978      2.51840      102.388 
0.000136438      3.71604      104.334 
0.000175981      1.83546      119.353 
0.000120837      2.20085      101.007 
0.000572961      7.94259      116.628 
0.000102800      1.70736      103.548 
0.000276912      7.58694      113.459 
0.000350803      1.78271      93.2093 
0.000330658      3.93393      108.069 
0.000179621      1.85315      119.046 
0.000161511      9.12651      106.292 
1.70909e-05     0.500058      53.1129 
0.000143295      6.21497      105.110 
4.93189e-05     0.957123      116.043 
0.000608485     0.509625      131.837 
6.10687e-05      2.11818      100.884 
3.19499e-05      5.19923      108.853 
5.37307e-05     0.544027      72.9147 
0.000488383      7.95169      116.758 
0.000141218      3.68646      86.5808 
0.000245119     0.993150      117.591 
0.000586664      3.68535      86.8836 
0.000397508      1.70273      102.885 
4.56186e-05      3.42579      99.4046 
0.000107693      2.27098      107.956 
0.000305191      9.10706      106.328 
7.32191e-05      5.19272      108.642 
0.000500325      8.30045      106.951 
0.000277544      8.13918      113.921 
0.000284387      6.74105      91.0205 
7.24294e-05     0.832090      80.2913 
0.000466513      4.93048      100.994 
0.000216260      7.56904      113.518 
0.000191630      6.19541      105.159 
0.000145580      3.42265      99.0823 
1.44193e-05      3.73998      104.560 
8.34844e-05      3.80080      96.0404 
9.58001e-05      1.20333      105.406 
0.000211761      7.17905      85.8461 
0.000377259      3.12530      86.6965 
0.000199609      2.16073      91.0546 
0.000426524      2.21310      167.467 
2.66889e-05      3.86102      98.3364 
0.000109242      2.11444      100.345 
6.54901e-05      1.91624      103.889 
0.000126301      3.73494      104.260 
0.000270896      1.82598      118.819 
0.000251424     0.848223      81.8627 
0.000179179      4.92493      112.192 
7.54602e-05      5.21121      108.573 
0.000116538     0.909182      140.358 
0.000114127      3.25968      90.0000 
0.000323641      3.79872      95.7365 
0.000269499      6.90889      83.1822 
2.62316e-05      5.74341      109.318 
6.46680e-05      7.57889      113.319 
0.000217014      1.85603      127.129 
3.79363e-05      2.49935      102.484 
2.58570e-05      1.19402      98.6750 
1.27439e-05      1.20887      106.331 
0.000164827      5.73674      109.127 
0.000118197      1.00269      118.617 
6.16001e-05      1.19113      97.7115 
1.25389e-05      4.06153      107.183 
7.84836e-05     0.180093      0.00000 
0.000253650     0.937714      140.194 
0.000277855      3.92769      107.788 
9.28251e-05      1.19539      107.536 
4.80680e-05      7.57090      113.178 
0.000385652      7.15884      85.8344 
2.38227e-05      1.82825      126.992 
0.000169364      4.06756      107.456 
0.000199213      1.81613      126.482 
9.90990e-05      1.94010      104.332 
6.46297e-05      6.22028      105.290 
0.000343372      6.74144      91.1927 
3.44627e-05      2.50364      102.920 
0.000133043      3.25974      90.3561 
2.34301e-05      1.18867      96.7796 
0.000218570      6.88878      83.1622 
0.000247192      8.00700      117.845 
6.63079e-05      7.56324      113.042 
0.000147305      1.20586      95.7141 
0.000163128      8.33149      107.172 
5.44154e-05      7.57685      113.653 
3.25653e-05      5.20503      108.370 
0.000107315      3.70558      86.9006 
4.32084e-05      1.78173      92.5828 
2.20320e-05      2.49737      114.101 
5.79928e-05     0.204262      168.773 
0.000117995      2.19333      167.352 
6.15986e-05     0.722868      94.7636 
4.26741e-05      9.31844      107.228 
2.14093e-05      2.48390      103.024 
0.000105908      9.29909      107.265 
0.000161760      3.12654      86.3259 
4.23093e-05      1.03918      120.027 
6.89684e-05      2.50571      114.523 
9.93857e-05      1.20142      108.424 
3.15625e-05      3.82095      96.0084 
1.05031e-05      5.07514      114.447 
0.000187995      6.75022      83.0211 
8.85083e-05      7.55533      112.900 
0.000187910      5.08324      114.647 
1.03334e-05      3.81888      95.7061 
7.33464e-05      6.88746      98.0100 
0.000438403      6.88477      97.8493 
0.000271027      8.68129      105.635 
0.000309974      8.48175      102.529 
0.000418928      7.14907      106.915 
0.000203202      8.65113      105.418 
2.15244e-05      7.99756      117.717 
0.000217219      9.32446      107.347 
5.95832e-05      2.09452      100.444 
0.000186761      7.58500      113.793 
0.000189998      6.58268      103.528 
0.000135957      8.47737      102.395 
5.96187e-05      7.71033      107.823 
4.04086e-05      3.79682      95.4436 
7.72863e-05      6.72335      107.840 
3.93348e-05      2.24549      107.624 
1.97446e-05      8.13098      113.790 
5.76726e-05      3.79495      95.1390 
1.93638e-05      1.69849      102.243 
0.000110259      4.95037      100.949 
5.63150e-05      3.75535      84.8066 
3.76355e-05      2.07151      83.9073 
1.89313e-05      6.20074      105.340 
1.88180e-05     0.819935      102.688 
0.000164781      2.33823      167.150 
5.53962e-05      3.10764      85.9430 
1.86551e-05      4.07346      107.717 
1.85990e-05      1.76011      91.2947 
1.85760e-05      3.41951      98.7471 
1.85690e-05      3.25992      90.6990 
3.68771e-05      2.11055      167.412 
1.84925e-05      6.60257      100.120 
1.83998e-05      1.20797      109.335 
5.33876e-05      3.81699      95.4147 
1.81892e-05      2.46416      103.131 
1.81599e-05      4.90257      111.542 
0.000655813      10.2400      109.036 
0.000586263      10.3842      105.641 
0.000379641      9.81632      102.592 
0.000174922      10.0079      103.286 
0.000128950      5.09173      114.854 
3.78464e-05      3.26023      91.0551 
1.89348e-05      3.28049      91.0485 
9.07491e-05      7.15740      85.9961 
1.87313e-05      7.59320      113.933 
8.99997e-05      3.61833      84.2870 
5.39986e-05      2.44517      103.234 
7.18079e-05      8.03390      100.472 
3.62715e-05      1.20401      94.7547 
3.56891e-05      6.60616      100.293 
3.58064e-05      3.77552      84.8344 
3.55882e-05      3.28092      91.4023 
5.30762e-05      2.16120      91.5917 
3.53393e-05      9.11257      106.446 
3.50639e-05      6.61086      111.285 
1.77318e-05     0.509625      101.293 
3.50474e-05      8.27590      106.856 
3.50064e-05      1.20255      93.8283 
1.75764e-05      4.87366      110.664 
-0.00126188      7.03971      139.843 
0.000301983      4.59426     -104.887 
-0.00143987      7.50485      137.808 
-0.00104542      11.7948      44.8634 
0.000392934      4.11369     -99.2372 
-0.000561886      7.36512     -177.822 
-0.00113879      8.93774      25.3043 
0.000879424      4.60870     -104.579 
0.000743651      3.73719     -47.6040 
0.000665176      4.11687     -99.5052 
0.00101228      8.90756      120.945 
-0.000556833      11.0665     -60.7948 
0.000773241      7.55984     -58.4130 
-0.00115177      10.8806      133.287 
-0.000326600      8.38237     -119.443 
-0.000331973      10.8358      43.6532 
0.000985560      13.0285     -38.3300 
0.000618766      3.08281      45.0000 
-0.000750571      7.34562     -177.816 
0.000830251      11.8154     -54.5072 
0.000614606      9.52062      57.6126 
0.000168085      6.70864     -5.30119 
-0.000451175      3.16104     -131.150 
0.000163375      5.34930     -80.7491 
0.000748152      7.83697      79.2614 
-0.000461116      4.71701      65.7182 
0.000303135      9.96423     -105.959 
-0.000504880      10.8301      157.981 
7.98155e-05      6.71054     -5.47344 
-0.000154182      7.69645     -176.277 
0.000513608      9.29997     -101.284 
0.000297021      6.15020      121.570 
-0.000568711      7.05279      139.717 
-0.000433230      9.60247      10.5591 
0.000569514      5.12425      19.8519 
-0.000227412      7.65091      157.724 
-0.000216321      9.39727     -80.9401 
0.000221127      7.11662     -52.4196 
0.000287863      6.68847     -5.31722 
-0.000220446      5.11011      144.877 
0.000283609      3.49437     -136.627 
-0.000624374      6.06783     -52.9062 
0.000211629      5.35259     -80.5350 
-0.000348696      10.8223      43.5784 
-0.000441557      11.1381     -48.6409 
-0.000350875      7.71870     -165.134 
-0.000215228      7.37065     -97.9527 
-0.000483242      1.07484      46.4993 
-0.000277979      11.4686      132.173 
-0.000140032      6.16772      167.450 
-0.000207387      7.69780     -176.126 
0.000273704      9.65540     -42.3132 
-0.000275022      7.66966      157.781 
-0.000272834      10.4753     -57.5565 
-0.000205031      3.39576     -156.755 
-0.000268160      7.54373     -103.337 
-7.03596e-05      6.18677      167.489 
-6.96997e-05      11.3684     -63.7952 
-0.000134182      7.56779      2.57444 
0.000135378      7.71917     -116.301 
0.000201740      6.73409      176.256 
0.000200120      12.0346     -135.068 
-0.000198642      2.16105     -7.98380 
6.81713e-05      4.13295     -99.1938 
0.000199349      7.45287     -134.894 
0.000132681      3.99523     -80.4864 
6.75739e-05      5.15778      78.8176 
0.000131680      6.16083      121.731 
-0.000131228      1.74916     -120.955 
0.000131901      9.29617     -101.166 
-6.61416e-05      8.21912     -111.256 
6.60802e-05      7.12853     -52.2953 
-6.57495e-05      7.37348     -98.1087 
6.53880e-05      7.10151      136.370 
6.53183e-05      6.46078      80.9184 
-6.51583e-05      9.28606     -141.822 
6.49703e-05      9.53148      57.5098 
-6.48477e-05      9.14810     -74.1385 
-6.46024e-05      3.83046     -175.810 
6.41173e-05      13.0407     -38.3972 
-6.40272e-05      4.69122      65.8374 
-6.39155e-05      13.1537      132.228 
6.39613e-05      3.75088     -47.3755 
-0.000299893      9.13633     -45.5324 
0.000188564      9.97908     -76.9095 
-0.000715114      9.07582     -149.256 
0.000710488      6.88943     -123.872 
-0.000177690      9.83282     -122.202 
-0.000541399      9.71359      34.3444 
-0.000368441      1.92478      47.5280 
0.000113416      9.95550     -76.9976 
-0.000307466      9.83857     -122.042 
0.000212824      10.1763      60.3101 
-0.000162138      9.15053     -45.4419 
-0.000636081      10.5378     -160.603 
0.000155502      10.1196     -79.1783 
-0.000154227      5.49124     -148.854 
-0.000371917      8.68495     -37.6075 
0.000195603      3.05401     -23.5480 
0.000248347      6.52899     -107.104 
0.000147944      4.09088     -85.7923 
0.000150253      5.72362     -138.401 
0.000580907      10.6025     -121.502 
-0.000149003      9.52979     -110.261 
0.000643424      12.6038     -47.9585 
-0.000225299      8.33058      141.730 
0.000130853      9.96008     -76.8841 
0.000187367      12.1696      138.397 
0.000301543      6.10164     -31.1897 
-0.000259985      10.9090      22.7587 
0.000251198      10.5892     -112.547 
-0.000253677      6.60825     -110.736 
-0.000134086      4.98497     -61.4790 
0.000480398      10.9483     -127.204 
-9.26856e-05      12.2151     -35.5393 
-0.000361801      13.4751     -138.551 
0.000437959      12.4606     -145.263 
0.000381918      10.1859      60.2148 
-0.000166815      9.12188     -45.4433 
9.13419e-05      10.9906     -58.3935 
8.79195e-05      10.1433     -79.0874 
-0.00263454      14.1321      43.6812 
0.000384027      6.54763     -107.054 
-0.000293081      5.80827      53.6853 
-4.65070e-05      4.38338     -55.2217 
-4.64594e-05      5.50525     -149.433 
0.000288953      10.5813     -32.3387 
-0.000134467      10.8653      126.089 
-8.93612e-05      4.59296      85.7557 
0.000164890      4.92440     -156.040 
0.000161636      12.2257      33.4560 
-0.000320557      9.04127      10.8352 
8.86250e-05      11.0507      55.6193 
-4.51755e-05      4.30451     -55.7919 
0.000417171      8.91255      4.89264 
-7.87873e-05      13.8091      133.241 
-0.000314807      9.82204     -122.102 
-8.19137e-05      5.62628      147.777 
8.64088e-05      9.07664     -52.7000 
8.60065e-05      10.6296      29.4098 
-0.000257507      9.08504     -68.9737 
-0.000123970      6.03741      10.3029 
-4.39125e-05      5.77334     -148.456 
-8.44727e-05      4.35518     -55.2886 
8.49792e-05      9.95230      122.859 
-4.35824e-05      9.52466     -110.528 
4.35121e-05      12.2426      33.4037 
0.000476972      9.29227     -101.043 
-0.000270119      12.1992     -35.5926 
0.000527936      10.1151      140.457 
-0.000122608      11.6629      131.314 
-4.28298e-05      5.48470     -148.574 
-0.000123814      7.35464     -131.364 
4.25146e-05      6.75430      176.267 
-0.000150722      6.01748      10.3374 
4.24387e-05      10.9361     -127.119 
-0.000312757      10.8772      126.175 
-0.000148886      4.26607     -56.0863 
-0.000182123      9.23034     -125.654 
8.03757e-05      11.0617      55.5359 
4.19082e-05      5.91994     -126.485 
-0.000187150      1.92676      48.3628 
-8.08293e-05      13.2789     -132.437 
-4.16428e-05      7.33994     -32.6486 
-4.15087e-05      9.06778      113.115 
4.14681e-05      11.1008     -27.3480 
-0.000494873      11.7568     -46.5853 
0.000377848      10.5608     -14.5892 
-0.000155030      11.1080      24.3523 
0.000156925      8.63536     -105.034 
-0.000311186      9.52044     -110.793 
-0.00154831      13.1327     -139.324 
0.000114669      5.00443      34.5789 
-0.000209814      13.3032      39.9384 
-0.000144881      6.38348     -171.898 
0.000808851      5.92425     -126.211 
0.000147232      12.1410      138.405 
7.58674e-05      10.9525     -58.5152 
4.01321e-05      9.77668     -154.169 
-0.000426053      10.2742     -175.312 
0.000186222      10.6473      29.3562 
-0.000373529      13.9734     -135.694 
-7.57846e-05      10.8900     -110.199 
0.000416442      10.5814     -112.446 
0.000223249      9.89222     -128.514 
0.000174376      9.08847     -52.6022 
-0.000149561      8.81640      18.5151 
0.000111795      7.48136      151.587 
0.000404188      10.3455     -140.648 
-3.92126e-05      5.47722     -108.301 
-0.000517084      12.4623     -54.9320 
7.59053e-05      6.77452      176.278 
-7.49959e-05      9.26799     -41.3269 
-3.87826e-05      4.68403     -77.9232 
-0.000598823      7.18941      42.7456 
-3.86818e-05      10.7933     -60.3480 
-7.35556e-05      2.80941     -151.977 
3.86795e-05      11.1188     -27.3000 
3.85853e-05      9.96331      122.956 
-3.82955e-05      13.8225      133.300 
-0.000233234      7.34127     -131.245 
-3.81239e-05      5.80628      166.251 
-3.80060e-05      10.4738     -18.7127 
9.11800e-05      10.1431      140.439 
-0.000267355      5.25721     -48.5471 
3.74284e-05      8.52810     -24.8220 
-3.73795e-05      4.39454     -55.0128 
-0.000140027      6.84822      2.84516 
0.000463742      12.7180      133.535 
6.96557e-05      9.79492     -154.220 
-0.000318395      10.7836     -60.4381 
3.71734e-05      10.2081     -172.456 
-3.71284e-05      11.2664      128.800 
-3.71617e-05      4.57430      85.4838 
0.000101835      7.55081     -154.589 
-0.000106619      11.3052     -146.984 
-6.97924e-05      11.6962      143.484 
-3.66165e-05      12.4456      54.0884 
-0.000160597      10.2937     -104.631 
3.64371e-05      9.44006      89.6356 
3.64261e-05      5.78261      160.187 
-3.63246e-05      5.49574     -108.237 
-6.95650e-05      11.6763      131.389 
-3.61171e-05      5.74914     -148.079 
-7.06284e-05      11.1039      128.417 
9.66926e-05      6.26278     -34.1984 
-0.000198575      5.79674      53.8407 
3.61608e-05      11.2357     -27.5696 
6.93005e-05      8.62181     -105.197 
-0.000213455      5.78660      166.203 
-6.99556e-05      10.2712     -112.922 
-0.000217504      9.05841     -149.190 
0.000156462      8.45350     -144.243 
-7.05658e-05      11.6976      49.9963 
0.000313309      9.67068     -177.274 
3.55413e-05      7.50552     -154.596 
0.000278055      10.0673     -51.6950 
9.74351e-05      10.2963      138.069 
-0.000100196      5.74172      141.932 
0.000159307      9.44021      89.5127 
0.000183354      10.2282     -172.471 
0.000250859      5.76355      160.119 
0.000533156      11.1333      151.454 
3.46867e-05      10.0287     -154.612 
3.46853e-05      8.54581     -24.7671 
-3.47271e-05      5.37302      35.7656 
-0.000186794      12.4195     -40.9528 
-0.000192476      11.7421     -46.5174 
3.45156e-05      4.95294     -156.433 
-0.000128961      5.50212     -108.437 
3.44959e-05      11.0918     -27.2585 
-0.000583347      11.0903      24.3939 
-0.000128421      9.46427     -1.69470 
-3.43960e-05      3.01469      64.4619 
0.000100130      8.03406      46.0104 
-3.42036e-05      12.4739      54.0677 
-0.000352944      10.8887      126.258 
-3.41415e-05      4.68831     -77.6811 
-0.000158808      11.8873     -48.4803 
-3.39661e-05      9.04071      89.2391 
-0.000204836      12.2020     -125.930 
-3.38456e-05      5.60979      147.670 
-9.63844e-05      9.51922     -43.8917 
3.37728e-05      9.46032      89.6364 
0.000129098      14.2285      44.2030 
9.83100e-05      9.89491     -128.352 
-3.37297e-05      9.41586      129.746 
-6.40802e-05      11.4749      140.232 
-0.000199989      8.82945      18.3533 
6.44657e-05      11.5969      44.4416 
6.30481e-05      9.83979     -77.3172 
6.40749e-05      5.52014     -143.546 
-9.74919e-05      9.81168     -122.005 
-0.000168394      8.43136     -72.4665 
-3.33494e-05      10.4546     -18.7484 
-0.000201027      11.7929     -36.1692 
3.31949e-05      11.2752     -39.8188 
3.30952e-05      9.46047      89.5137 
-6.54161e-05      9.06072      89.3689 
-0.000323599      5.42330     -166.787 
-0.000551856      11.7125      50.0577 
6.30164e-05      9.58899     -70.8830 
-0.000118794      13.9879     -135.752 
3.27903e-05      8.02595      144.329 
-3.27140e-05      11.2889     -146.930 
0.000149696      4.96348     -156.741 
8.41392e-05      6.90564     -123.782 
-9.55554e-05      10.3047      115.768 
-0.000227976      10.2525     -112.966 
0.000194359      8.95325     -134.185 
3.22090e-05      10.5115      103.984 
3.21449e-05      9.81632     -77.4075 
-3.21731e-05      8.49697      63.4349 
-0.000205017      7.34001     -131.465 
-3.21380e-05      9.40292      129.651 
-6.33041e-05      11.7000      50.1309 
-9.28287e-05      12.4575      54.0130 
-3.20644e-05      12.1828     -35.6480 
-0.000203497      2.15265      146.748 
6.16570e-05      3.84008     -41.4113 
0.000371519      11.1628     -26.1534 
3.18290e-05      8.59109     -24.7765 
3.16849e-05      6.96015     -39.6371 
-0.000115874      3.26270      2.46494 
-5.63430e-05      9.10254     -34.0726 
0.000268715      8.89237      4.90377 
-0.000238070      6.56532     -70.7885 
0.000164368      8.03360      45.8061 
-0.000181973      11.4905      140.296 
0.000252306      8.00949      144.245 
0.000108679      9.82075     -77.2922 
-6.03115e-05      11.6897      131.463 
-0.000147251      11.2830     -146.788 
-0.000240642      12.4735     -54.8586 
0.000119902      11.8211     -149.835 
-0.000185774      9.46048     -118.677 
-3.10841e-05      3.00633      64.7974 
9.03221e-05      8.85764      133.170 
-3.09227e-05      1.91335      48.8162 
8.60150e-05      7.51972     -108.773 
-0.000164536      9.38791      129.727 
0.000265185      9.90749     -128.444 
0.000111279      10.9606     -127.288 
-0.000775198      9.35829     -163.232 
-3.06841e-05      12.2106     -35.6670 
-3.06771e-05      6.86748      2.66795 
-3.05180e-05      7.02398     -34.9108 
-0.000191951      9.06097      89.2408 
0.000127909      5.75669      160.308 
-0.000224261      11.6725      145.328 
-3.04228e-05      11.5232      27.9434 
-5.96026e-05      5.75709      142.052 
-5.91390e-05      9.97613     -28.1052 
-5.92540e-05      11.0918      128.338 
0.000246984      14.2139      44.2599 
-0.000519737      9.52281      106.720 
-3.03728e-05      8.75312     -37.7600 
-0.000135233      9.81753     -121.845 
-5.80660e-05      13.8372      133.242 
-3.01924e-05      11.8592     -48.4860 
-0.000232656      6.76842      174.746 
2.99224e-05      10.5368     -32.3613 
-0.000625393      10.2963      115.671 
0.000228962      10.0501      31.1596 
-2.96363e-05      7.25605     -43.9986 
2.96005e-05      10.0707     -51.8569 
-5.83215e-05      6.74824      174.730 
-8.52236e-05      10.4361     -18.7828 
2.93585e-05      9.99882     -170.444 
2.93326e-05      10.2458      104.931 
-0.000109424      6.88772      2.66010 
0.000197291      10.2029      60.2692 
-0.000492499      11.7556     -46.4484 
0.000135617      8.32845     -142.413 
0.000214357      12.4717     -145.189 
0.000316342      9.71508     -107.987 
8.29832e-05      3.76134      32.8499 
-8.36499e-05      11.3955      28.8604 
-8.08625e-05      9.58854     -2.39061 
5.68587e-05      7.62743     -77.2749 
2.88412e-05      9.96453     -76.7748 
8.18477e-05      9.44040      89.3943 
-0.000131950      7.37416     -93.5763 
-5.54172e-05      12.1941     -35.7225 
-5.66929e-05      8.25586      59.5846 
5.58630e-05      7.41661     -154.609 
-5.09571e-05      12.4858      53.9924 
0.000183025      12.1544      138.334 
-0.000157894      8.24612     -60.8249 
0.000161626      12.4038      125.483 
0.000161583      9.60202     -55.7809 
0.000179603      9.98474      64.8736 
-0.000104256      5.79196      53.5666 
2.85882e-05      9.10079     -52.5008 
-8.15793e-05      13.0182      131.701 
0.000148484      6.17111     -121.885 
-2.83086e-05      7.00737     -35.0056 
-0.000109078      9.51599     -111.065 
-5.29818e-05      13.2674      39.6164 
-2.82518e-05      9.11053     -68.8988 
-0.000325588      7.52562     -177.714 
-0.000203526      1.13161      43.5491 
-7.80889e-05      11.6282      145.299 
-2.80210e-05      9.72970      34.2796 
0.000312452      9.28841     -100.920 
0.000177767      11.8138     -149.700 
-5.32379e-05      11.7026      131.535 
-0.000131397      9.85933      176.396 
2.78739e-05      7.06802      157.721 
-0.000103867      9.13644      119.654 
-0.000152857      10.3918      36.6266 
5.47123e-05      10.2408      104.825 
0.000400298      10.6092     -121.352 
-0.000475063      10.0816     -1.02356 
2.77678e-05      7.03231     -115.253 
-2.77920e-05      7.59367      131.587 
-9.71245e-05      8.52471     -73.6500 
-0.000102066      9.86220      169.602 
2.76853e-05      9.58237     -70.9975 
0.000187826      3.82671     -41.1838 
-2.75053e-05      5.28475     -48.5286 
-0.000129523      11.1252     -48.7163 
-7.92459e-05      13.1776      39.8298 
-0.000100665      10.7599      59.3823 
0.000128230      6.01628      59.4272 
-5.22812e-05      9.82100     -117.139 
-0.000100268      5.78039      53.7222 
4.96057e-05      9.62690      118.005 
-2.71007e-05      9.94973     -28.0590 
-2.70812e-05      4.22671     -56.3889 
-2.70491e-05      9.07576      113.233 
0.000125466      8.79265     -26.0402 
-0.000230237      12.3915     -40.9411 
-2.68918e-05      10.4436     -54.6667 
-7.54908e-05      11.2667     -146.733 
-0.000102858      5.37210     -3.84442 
-2.68133e-05      7.43114      161.807 
0.000690515      10.5557     -14.4828 
-0.000146981      8.54415     -73.6883 
-2.68211e-05      5.50832     -108.630 
-2.67832e-05      5.76068      142.334 
-2.66948e-05      8.80138     -116.738 
-0.000284402      9.04844     -149.296 
0.000297265      12.0787     -44.0611 
-0.000582442      11.1513      59.6181 
-0.000100491      8.24600      59.7015 
-0.000967224      10.2905     -96.6959 
0.000119070      3.27040     -107.437 
0.000203685      12.8528     -128.493 
0.000122726      7.04996     -115.185 
-7.66070e-05      10.4169     -18.8187 
-2.64378e-05      10.3792     -146.952 
4.81544e-05      5.57206      162.021 
0.000120242      10.1302      140.528 
0.000458115      9.92082      54.9324 
8.93750e-05      10.0380     -154.761 
-5.15659e-05      12.4694      53.9376 
2.62393e-05      12.2315      33.3245 
0.000149669      10.2167      104.744 
-0.000125322      11.9331     -148.922 
2.62149e-05      5.53645     -143.671 
-2.61000e-05      6.02686     -2.66184 
-2.60823e-05      7.67566     -101.572 
0.000109128      6.25630     -82.2868 
4.88877e-05      10.0548     -51.7856 
-6.98844e-05      5.35657     -48.6291 
-2.57646e-05      5.77308      142.175 
-7.25538e-05      7.47573      161.761 
-7.42850e-05      13.7409     -137.062 
-5.02327e-05      11.4028      28.7239 
-2.56791e-05      13.8511      133.303 
-0.000298639      9.50872     -110.951 
7.46993e-05      9.69248     -12.0294 
-0.000135589      10.3009      133.114 
0.000252693      11.7695     -136.377 
-0.000118088      7.43239     -66.1937 
-0.000138115      12.6719     -135.511 
-0.000143528      10.3962     -147.013 
0.000282384      10.3305     -140.580 
-0.000138959      7.67975     -101.721 
-7.26653e-05      7.55626     -60.8564 
-0.000181989      13.0047      131.634 
4.88849e-05      13.1940     -140.905 
7.14944e-05      10.2482     -172.486 
-0.000114363      11.3857      28.7711 
0.000162340      14.1432     -134.314 
2.49404e-05      10.0563     -154.810 
-0.000222631      5.39232     -3.82999 
9.18145e-05      5.86587      74.7815 
0.000203838      7.54418     -140.485 
-0.000133358      11.6449      145.356 
2.47680e-05      9.65119     -177.268 
-0.000237755      12.0643      134.262 
-2.47427e-05      5.78910      142.298 
-7.18313e-05      9.42109      139.649 
6.78347e-05      9.54227     -51.0390 
-0.000224647      8.54986     -73.5580 
-7.13379e-05      10.8613      22.9761 
0.000214691      9.61878     -55.8488 
-2.45310e-05      9.96696     -28.0063 
4.63904e-05      10.6347      73.9513 
0.000243257      12.4155      125.559 
2.44717e-05      9.07239     -52.5244 
-0.000113054      10.6582      65.2609 
0.000201348      8.75829      106.449 
-9.32870e-05      8.87542     -117.952 
0.000658751      13.5935      137.862 
7.05970e-05      9.44063      89.2713 
-6.87593e-05      12.1783     -35.7761 
-0.000222410      11.7703     -46.5163 
0.000224687      14.2000      44.3149 
0.000561836      12.5887     -47.8968 
-9.11484e-05      11.2770     -142.277 
-4.66257e-05      10.7666     -60.3869 
0.000156160      10.7969      70.8586 
0.000222552      8.36065     -172.024 
-0.000328375      13.1626      39.8842 
-0.000131623      11.7650     -36.1507 
-8.95126e-05      3.26360      2.80714 
4.59057e-05      10.1708     -78.8890 
6.94200e-05      7.96538      144.196 
-0.000179896      10.8373      43.3559 
-0.000132452      11.5913     -38.2728 
-6.76012e-05      7.94741     -30.8877 
0.000282956      8.31300     -142.331 
-0.000109762      5.34195     -48.4908 
0.000306275      9.71653     -12.1213 
0.000194247      10.6536     -144.938 
0.000257725      8.85444      5.05156 
-0.000114333      9.08048      89.2424 
-0.000477863      13.2347     -47.3874 
-4.69605e-05      13.4733     -138.430 
-4.52068e-05      13.3939      134.335 
-0.000184381      8.95209     -45.4517 
-4.65048e-05      11.1628      65.7747 
-7.99303e-05      12.0929      134.263 
-9.08405e-05      10.6766      65.3064 
-0.000205265      9.16370      119.697 
-2.34303e-05      12.2178     -125.877 
-8.61924e-05      10.0216      79.0712 
-6.73160e-05      5.79221      142.575 
4.55256e-05      6.00600      59.5936 
8.65873e-05      10.9724     -127.369 
0.000412806      10.2116      104.634 
-0.000128736      11.1100     -48.6473 
6.04322e-05      9.82507     -77.1812 
-6.70809e-05      10.2104     -177.418 
2.31174e-05      4.97417     -157.048 
6.65437e-05      9.25171     -177.150 
2.30910e-05      9.24862     -152.992 
-4.41014e-05      10.3978     -18.8547 
6.58939e-05      9.35990      7.49022 
-2.29597e-05      10.1738     -112.786 
-0.000104265      8.88458     -118.063 
0.000152066      11.3497     -34.0830 
-0.000375596      13.7266     -137.007 
0.000365867      13.3022      41.6499 
-0.000106684      7.51989     -61.0487 
6.56277e-05      12.1398      138.272 
-0.000599819      13.4885     -138.487 
-2.26724e-05      11.5407     -45.5611 
-0.000129124      5.76407      53.6030 
8.68697e-05      9.23057     -152.935 
2.25579e-05      9.03891      41.5909 
-6.50328e-05      11.2497     -146.677 
-0.000145459      12.2293     -125.951 
4.42909e-05      9.30756     -100.898 
-2.23873e-05      7.32661     -131.346 
2.23723e-05      9.57579     -71.1121 
0.000105771      7.46250      50.7661 
0.000104117      8.83887      81.4118 
-2.23408e-05      8.72868     -159.198 
-0.000276706      10.2507     -20.2046 
2.23645e-05      10.4945      17.2961 
2.23300e-05      10.2405     -140.307 
0.000161383      9.97647      64.9750 
-0.000145412      1.14583      42.8769 
0.000126036      11.7842     -136.445 
0.000148274      8.64177      25.4948 
4.37237e-05      12.9579      46.3750 
6.39839e-05      10.2650     -172.612 
-8.52922e-05      10.5445     -160.499 
-0.000125732      9.34477     -163.077 
-4.27276e-05      10.7702      59.2896 
-0.000126588      11.2041      133.554 
-8.12700e-05      13.1396      44.1971 
0.000387428      9.44091      89.1484 
0.000246348      10.7244      153.768 
0.000186404      12.6062     -129.980 
-4.24916e-05      10.9007      126.344 
-4.27286e-05      9.40623      139.572 
0.000181283      11.2831     -118.246 
9.72053e-05      12.7319      133.601 
-6.12521e-05      7.49426      161.808 
-0.000125333      8.67982      89.7375 
-0.000288259      8.21449     -30.7492 
-7.86321e-05      7.37545     -93.7334 
5.95348e-05      8.77445     -26.0983 
-6.31829e-05      10.4125     -147.072 
-4.24864e-05      11.4602     -43.3046 
8.07830e-05      7.56229     -88.6354 
-0.000221757      10.6681      65.4053 
-0.000116856      10.0807      78.5579 
4.21671e-05      12.9403      139.638 
2.13792e-05      7.10484      157.842 
-2.13761e-05      10.8434      23.0164 
4.21749e-05      12.8487     -48.3428 
8.11648e-05      7.05861     -115.334 
-8.09163e-05      7.40568     -66.2739 
-0.000461317      13.6458     -138.625 
-2.11273e-05      9.10074      89.2441 
-9.91233e-05      6.78859      174.761 
-0.000168847      10.8640      21.0364 
-2.10537e-05      10.1666     -58.8419 
-7.92535e-05      10.7763     -60.2967 
0.000213741      12.9719      46.3102 
0.000151273      14.1290     -134.255 
0.000137734      9.27119     -177.156 
-0.000100902      1.77255     -49.1198 
-2.09656e-05      7.18889      42.9697 
-4.06474e-05      5.82061      142.538 
-2.09247e-05      9.12099      89.2458 
-0.000177539      9.03102     -149.231 
2.08801e-05      8.87293      4.91454 
6.08995e-05      6.16083     -121.731 
0.000299025      11.1161      151.406 
-0.000172160      12.6863     -135.575 
5.72879e-05      9.33982      7.50643 
0.000174077      10.8161      70.8938 
4.04527e-05      9.56481     -159.178 
3.89903e-05      5.55279      161.957 
-7.62673e-05      8.09970      89.8567 
-9.79886e-05      11.6964      120.863 
7.96610e-05      12.1219     -43.9968 
0.000289576      14.1855      44.3720 
-3.74079e-05      10.8231      43.4268 
-7.96004e-05      10.1283     -58.9787 
-0.000210536      10.1911     -177.299 
-4.02064e-05      7.13909      123.110 
2.05528e-05      9.22245     -152.768 
0.000207741      12.4269      125.633 
9.79699e-05      12.9052     -37.6322 
3.91902e-05      10.2356      104.716 
-0.000144419      13.6761      44.3487 
-0.000309540      12.3629     -40.9317 
-0.000113421      13.1536      44.1379 
-2.03985e-05      9.14050      89.2474 
0.000168303      12.8352     -48.4104 
-6.00801e-05      10.2715      64.8840 
0.000151773      10.8219      50.2494 
-9.56732e-05      4.80771      76.7728 
-0.000151252      11.4883     -43.3061 
9.79295e-05      11.3215     -34.0555 
2.01931e-05      9.82198     -154.428 
0.000151953      8.34417     -171.868 
-0.000217711      9.14079      89.1204 
5.94272e-05      9.34238      7.62505 
-2.01906e-05      11.6891      145.385 
-9.73443e-05      10.4401     -147.042 
3.96100e-05      10.8034      70.7609 
-3.95666e-05      10.5261     -160.463 
9.19966e-05      8.86255     -178.578 
2.00598e-05      8.36348     -171.887 
-0.000185550      10.8234      43.2779 
9.61785e-05      11.0856     -28.0898 
0.000152167      8.65938      25.4392 
5.87883e-05      9.70884     -107.873 
-1.99592e-05      5.75207      53.7655 
0.000133094      9.21320     -152.880 
1.99000e-05      9.42171      89.0280 
1.98821e-05      5.69918      160.742 
5.82019e-05      11.1918      25.2833 
-1.98556e-05      9.32034     -90.6135 
-5.75750e-05      11.2328     -146.620 
3.90258e-05      13.7482      134.056 
-3.91389e-05      5.41178     -3.81619 
1.98257e-05      10.0389     -51.7141 
-1.97865e-05      12.9913      131.567 
-5.66313e-05      10.2758     -175.200 
3.82942e-05      10.6370     -144.875 
-7.41708e-05      3.24411      2.82402 
-0.000182883      13.3999     -49.1760 
-9.35222e-05      11.2181      133.629 
-5.74121e-05      11.5479     -38.3191 
8.82112e-05      9.06329     -154.793 
-3.90675e-05      5.73634      53.6503 
-1.97000e-05      9.36881     -127.630 
-1.96770e-05      7.93003     -30.9628 
-1.96745e-05      8.23580      59.8232 
-3.86212e-05      9.80686      79.4226 
0.000109774      10.6913      140.085 
-1.96375e-05      10.2618      64.7335 
-0.000589857      13.8225     -46.7004 
-0.000111085      13.6620      44.2879 
3.89250e-05      12.0647     -44.1256 
-3.88509e-05      12.8568      135.818 
0.000231037      5.91274     -126.058 
1.95252e-05      9.34952      87.4240 
-0.000109870      10.9128      126.429 
-1.94887e-05      6.62500     -177.754 
7.30927e-05      8.33088      101.635 
-3.80119e-05      10.2635     -41.0484 
0.000605354      12.5936     -129.912 
-7.53229e-05      8.70001      89.8666 
9.19774e-05      6.14361     -121.830 
1.92746e-05      11.1446     -26.1993 
-8.95904e-05      7.55830      66.2853 
-0.000110632      12.2412     -126.028 
3.80386e-05      9.81358     -154.530 
0.000338784      8.87462      5.04004 
0.000303873      12.3912     -128.183 
-0.000193973      10.5329     -160.359 
-0.000432375      12.8423      135.755 
-5.59025e-05      11.1229     -48.5719 
-0.000129474      1.80056     -49.0387 
0.000184536      9.35041      87.3045 
1.92410e-05      10.5078      17.1578 
5.59911e-05      12.4487      138.059 
0.000145661      11.2852      60.4810 
-0.000359469      9.49780      106.642 
7.60445e-05      10.3058     -154.480 
9.42811e-05      9.63623      3.33030 
-0.000308644      9.16105      89.1224 
-0.000145189      10.2531      64.8359 
-3.80209e-05      10.0558     -176.809 
5.62966e-05      11.1425     -32.0921 
-5.51612e-05      10.3793     -18.8895 
-1.90526e-05      4.15423     -105.645 
-7.43310e-05      11.7487      143.791 
-0.000106989      11.2930     -142.340 
-3.76340e-05      13.8083     -46.6449 
0.000287601      10.7426      153.816 
-0.000128079      5.72436      53.8136 
-9.25135e-05      10.1388     -58.8806 
0.000146041      9.68956     -107.910 
0.000106994      7.44970      50.8868 
3.73179e-05      3.24222      173.275 
-8.89949e-05      10.2818     -45.3933 
0.000178869      12.1073     -44.0634 
-1.88954e-05      8.56567      127.887 
5.51932e-05      12.9684      139.630 
0.000209934      10.2639      73.4729 
-0.000141674      9.79881      166.303 
5.54975e-05      12.8521      138.598 
0.000156218      8.67768      25.3818 
8.76089e-05      10.1960      60.1160 
0.000281203      2.92819      136.381 
0.000245745      11.3054     -34.1109 
1.86607e-05      9.92337     -128.371 
3.69992e-05      9.29143     -177.162 
-0.000280055      10.4572     -147.102 
-3.71539e-05      10.6775      65.5477 
5.43532e-05      11.2005      25.3770 
7.26964e-05      8.57162      120.572 
-5.43766e-05      12.4649      40.7719 
3.69495e-05      13.4352     -134.638 
7.36056e-05      10.3145     -154.378 
-8.80026e-05      2.92037      91.1779 
8.87116e-05      9.31092      136.914 
1.84912e-05      11.6963     -42.0902 
1.85312e-05      8.24679     -20.5902 
-0.000108003      10.0753     -176.815 
-1.85136e-05      7.95783     -31.0129 
-1.84850e-05      9.28126     -125.885 
5.49672e-05      11.0413     -28.0977 
-0.000124009      4.15954     -105.904 
-1.85331e-05      6.18028     -172.002 
0.000281274      11.6794      39.4417 
0.000315043      10.8225      70.7962 
8.69781e-05      9.68131      179.054 
1.84420e-05      10.1215     -97.2662 
-1.84298e-05      13.4041     -139.416 
3.61226e-05      12.8407     -128.425 
-8.78776e-05      11.0954     -48.5808 
-1.83383e-05      9.82604      79.4435 
1.83186e-05      9.50185      128.075 
-8.80557e-05      8.53723      127.863 
-3.59804e-05      11.9157     -148.872 
-5.29746e-05      7.39438     -93.5665 
-0.000244193      10.6879      65.6879 
-0.000396794      11.1616      59.5284 
-1.82961e-05      11.2165     -146.565 
-3.56027e-05      10.2768     -41.1336 
-5.29639e-05      9.34084     -90.7365 
-0.000208859      8.97990      89.8707 
-5.26760e-05      7.01313     -174.437 
0.000124724      9.61601      3.33732 
1.82107e-05      8.55418      120.641 
-8.77392e-05      9.00691     -148.994 
-1.81966e-05      9.79689     -27.8742 
-1.81785e-05      7.84648      164.474 
-3.61988e-05      7.49236     -61.1093 
0.000207309      12.8933     -37.5635 
-1.81007e-05      11.5120     -145.262 
0.000241950      12.9854      46.2480 
0.000448401      14.1710      44.4293 
-3.51381e-05      9.10237      113.300 
-1.80985e-05      11.1724     -139.066 
-6.98741e-05      6.80802      174.776 
0.000173657      9.19517     -152.822 
-5.20057e-05      11.9053     -148.955 
8.77609e-05      9.84860     -77.0914 
0.000159135      10.2963     -154.329 
-0.000242105      11.7000     -61.0678 
-1.80211e-05      10.3563      55.9426 
-1.80062e-05      9.82963      79.3317 
-3.55575e-05      7.50023      170.638 
-0.000105831      10.1022     -1.13640 
1.79936e-05      10.1039     -97.3905 
-3.57379e-05      11.7650      143.849 
-0.000240927      13.3893     -139.361 
-0.000138041      7.86958     -21.9374 
0.000121346      6.86688      31.4233 
3.51929e-05      9.58375     -159.221 
8.71354e-05      13.4494     -134.699 
-1.80057e-05      9.01426     -149.167 
-0.000154636      10.2145     -62.9851 
0.000172107      12.8393      138.663 
-6.87225e-05      9.36416     -163.113 
-0.000223927      11.7236      120.899 
0.000121549      11.9609      34.6472 
8.82042e-05      11.0683     -28.1374 
0.000104515      11.1831     -140.587 
3.51549e-05      10.3148     -140.508 
-0.000154745      8.78110      90.7834 
-0.000172510      10.1493     -58.7827 
-6.99908e-05      11.7766      143.773 
6.91201e-05      9.25274     -177.025 
0.000137901      10.4840     -164.852 
1.78372e-05      8.84192      81.2819 
-7.04340e-05      12.7003     -135.637 
-0.000120318      9.00125     -86.0515 
0.000290978      9.35139      87.1805 
1.77299e-05      12.8240      138.603 
0.000103288      10.1587      140.512 
8.75133e-05      9.66800      103.520 
5.20378e-05      11.7365      35.2864 
1.76835e-05      11.0984     -32.1158 
6.97755e-05      13.3151      41.7126 
0.000103802      10.7664      151.483 
-3.51049e-05      8.92398     -45.4565 
-1.76698e-05      11.3478      128.991 
-1.76459e-05      10.7688     -60.1496 
-1.76635e-05      11.1767      46.5942 
-0.000187789      13.7118     -136.949 
8.58131e-05      11.9868      32.0464 
6.98191e-05      10.4893     -164.745 
0.000102173      9.27222     -177.031 
-0.000102519      7.48296     -61.2401 
3.46459e-05      12.4638      138.121 
6.88259e-05      10.1065     -97.5044 
0.000228760      8.58194      120.689 
0.000120015      11.3418     -62.9399 
3.43703e-05      9.51436      128.171 
5.18050e-05      13.0444     -49.1031 
-6.83721e-05      11.1628      46.6697 
-1.74584e-05      9.32031     -116.237 
-1.74577e-05      7.53909      161.758 
-6.88731e-05      10.1725     -177.184 
1.74762e-05      9.73311      8.74482 
-0.000101910      11.5031     -43.2369 
-0.000119233      5.70802      53.6935 
-5.17747e-05      7.94047     -31.0882 
-3.47212e-05      9.84954      79.3535 
5.14082e-05      11.2695     -35.9741 
1.73670e-05      9.83187     -154.581 
-5.14916e-05      10.0955     -176.821 
-1.73654e-05      11.1871     -139.132 
-5.10920e-05      11.3799      62.1271 
0.000119191      11.0983      151.356 
5.15055e-05      9.68358     -107.800 
-1.73679e-05      12.4501      40.8305 
5.10960e-05      9.61343     -55.6810 
-1.73160e-05      13.9738     -135.812 
8.53130e-05      11.1130     -28.1328 
1.73186e-05      9.73621      8.86266 
-3.42556e-05      3.22494      3.20128 
-1.73147e-05      11.0405     -41.2552 
5.09075e-05      10.1189     -25.1455 
0.000118384      10.4705     -164.717 
-5.14426e-05      9.37698     -163.266 
-1.73349e-05      12.0788      134.195 
-8.53030e-05      10.2928     -96.8079 
-6.80403e-05      8.19773     -30.8189 
-1.72952e-05      9.66772     -5.69732 
0.000169115      13.0480      130.648 
8.49124e-05      11.1000     -26.1961 
5.11989e-05      10.5265      17.1265 
8.46601e-05      11.6519      39.4286 
1.72263e-05      9.56163      91.0792 
-0.000152467      10.1217     -1.13421 
3.42509e-05      9.99369     -92.9827 
-0.000135467      12.7289     -135.635 
0.000101278      13.5649      137.868 
-0.000168669      12.8704      135.756 
-1.72497e-05      11.3605      129.070 
0.000202820      10.2780     -154.281 
-0.000118681      11.7929      143.831 
8.47135e-05      9.61489      3.22125 
6.78178e-05      9.75623      8.84433 
-1.71442e-05      11.1553     -146.482 
5.07995e-05      10.9820     -32.1274 
-0.000101644      10.8451      21.0748 
5.08855e-05      9.44122      89.0300 
5.07255e-05      8.88280     -178.582 
1.71360e-05      11.6670      39.3677 
-3.40934e-05      11.1754      46.4501 
5.07777e-05      13.3006      41.7686 
0.000101273      9.66328      103.403 
5.04968e-05      6.12704     -121.927 
-8.42535e-05      9.34112     -90.8607 
-5.06884e-05      9.85331      79.2377 
-3.40644e-05      9.97824     -59.5299 
0.000137459      10.9087      113.557 
-1.70798e-05      12.1050     -36.2640 
6.73856e-05      9.54137      91.0815 
1.70236e-05      12.9529      139.572 
3.38649e-05      11.1829      25.4199 
3.37351e-05      8.34934      157.611 
5.05682e-05      10.7831     -71.7340 
-3.38473e-05      14.0024     -135.810 
5.04836e-05      9.61692      5.00905 
-1.70256e-05      13.8364     -46.6393 
-0.000117587      9.47259      106.560 
-3.35820e-05      11.0557     -41.1859 
-1.69639e-05      11.1384     -146.424 
5.04195e-05      12.3069     -43.6808 
-1.69584e-05      8.73943      64.3744 
1.69386e-05      12.8218     -48.4781 
-3.36237e-05      8.98955     -148.928 
6.73121e-05      12.4038     -128.257 
-5.04280e-05      12.8281     -135.820 
-1.69125e-05      12.4629      40.8984 
1.69496e-05      9.66189      131.644 
3.36142e-05      12.8376     -128.547 
6.71540e-05      12.9311     -40.8609 
3.36980e-05      9.79660      148.353 
-5.03416e-05      4.16513     -106.172 
1.68570e-05      9.28473     -100.802 
-1.68487e-05      11.8579     -144.889 
6.70346e-05      11.2111     -140.576 
3.36324e-05      9.85297     -76.9809 
5.03279e-05      9.99265     -92.8667 
-1.68770e-05      11.1450      128.516 
-5.05095e-05      12.4341     -54.9547 
-5.01908e-05      9.98853     -59.4297 
-5.01955e-05      11.8123      37.4319 
-3.35709e-05      10.1920     -177.189 
-3.34506e-05      6.89534     -55.7548 
-1.67977e-05      11.4013      129.161 
1.67948e-05      14.1151     -134.311 
1.67962e-05      8.90259     -178.710 
-5.01217e-05      10.1341     -176.944 
-1.67991e-05      10.7754      23.5177 
5.01536e-05      10.7757      151.391 
3.35315e-05      13.4631     -134.758 
-1.67985e-05      9.68788     -5.68542 
-3.34224e-05      7.95095     -31.2132 
1.67668e-05      8.35073      101.607 
3.34522e-05      10.1091     -97.6183 
3.34783e-05      10.7601      153.862 
-1.67385e-05      8.74821      64.2548 
5.01532e-05      11.0450      155.615 
1.67763e-05      9.54281      128.192 
3.33551e-05      11.9448      34.7004 
-1.67358e-05      7.03330     -174.453 
1.67923e-05      9.64843      131.554 
-5.01586e-05      10.2692      115.618 
-3.33724e-05      9.53454      73.0468 
3.34166e-05      11.1404     -28.1756 
-1.67352e-05      9.38283     -163.148 
1.67157e-05      11.2576     -35.8906 
-1.67213e-05      6.87860     -55.6598 
1.67080e-05      9.32047      7.52209 
6.67051e-05      12.5806     -129.841 
-3.33210e-05      8.98046     -86.1671 
-3.32628e-05      12.4224     -55.0312 
-1.66509e-05      7.53975      66.2234 
-3.33194e-05      10.4985      164.983 
-1.66711e-05      3.20471      3.22150 
1.66970e-05      11.0806      151.305 
-3.32850e-05      11.6902     -61.1547 
1.66663e-05      9.80326      148.516 
1.66794e-05      11.9564      34.7802 
-1.66550e-05      9.19134      119.744 
-1.66416e-05      14.0164     -135.865 
1.66516e-05      9.77550      8.82675 
1.66309e-05      12.7351      141.887 
-1.66072e-05      13.1480     -139.381 
-1.66179e-05      11.8136      125.979 
-1.66095e-05      10.7171     -160.144 
1.66167e-05      9.02474     -18.4741 
-1.66019e-05      13.6906      44.2894 
4.20547e-05      10.4751      17.3291 
0.000117197      10.4691      17.2232 
-0.000155444      10.1026      40.3456 
-0.000116317      12.5490     -46.6161 
-7.77241e-05      12.0784      134.330 
9.68056e-05      8.02834     -76.3106 
-5.86068e-05      12.1522     -36.5663 
-5.79729e-05      11.2943     -38.8185 
-3.80813e-05      12.1243     -36.5493 
9.41405e-05      12.2241      130.756 
-7.56840e-05      11.2404     -37.4811 
7.50741e-05      11.9076      47.7916 
-9.35083e-05      12.2374     -126.158 
7.55237e-05      9.27960     -165.903 
5.68992e-05      13.0047     -138.366 
-5.61727e-05      9.11011      113.412 
3.82562e-05      10.9010      113.463 
5.64640e-05      10.7496     -149.475 
-3.75687e-05      9.72299     -15.2675 
1.90986e-05      13.3173      41.5920 
-3.69894e-05      11.6100      34.0454 
-5.45663e-05      13.2962      46.2188 
-1.81356e-05      10.6295     -35.8142 
-1.79537e-05      13.4959     -43.5604 
-1.78846e-05      10.3196     -41.0699 
1.78664e-05      13.0199     -138.425 
-1.77436e-05      9.28328     -141.650 
1.93039e-05      13.3022      41.6478 
