! Center RA: 12 21 31.69052,  Dec: +28 13 58.50011 (2000.0)
! Established model.
! Flux (Jy) Radius (mas)  Theta (deg)  Major FWHM (mas)  Axial ratio   Phi (deg) T \
! Freq (Hz)     SpecIndex
 0.0433414     0.185635     -104.036 
 0.0142687     0.200228     -102.995 
0.00645792     0.171115     -105.255 
0.00238219    0.0300155     -90.0000 
0.00327139    0.0150077     -90.0000 
0.00818896     0.182577     -99.4623 
0.00192078    0.0808192      111.801 
0.00168682     0.156685     -106.699 
 0.0117130    0.0450232     -90.0000 
0.000962403    0.0875094      120.964 
0.00542168     0.100675      116.565 
0.00237732     0.167792     -100.305 
0.000680389     0.108222      123.690 
0.00461447     0.120996      119.745 
0.00209007     0.195677     -94.3987 
0.00155203    0.0474586     -108.435 
0.000723228     0.134233      116.565 
0.000409294     0.129101      125.538 
0.000137280     0.141583      122.005 
0.000268665     0.204127      107.103 
0.000756020     0.223106      109.654 
0.000368340     0.117214      129.806 
0.00177054     0.210108     -90.0000 
0.000690074    0.0335583     -116.565 
0.000611020     0.237293      108.435 
0.000115528     0.127345      135.000 
0.00153387     0.242457      111.801 
0.00165071     0.117214      140.194 
0.000306513     0.256452      110.556 
0.00257236     0.262099      113.629 
0.00136758     0.210644     -85.9144 
0.00119689     0.438319      128.047 
0.00127739     0.225616     -86.1859 
0.00119217     0.479544      110.136 
0.000637957     0.447724      129.560 
0.000583197     0.212241     -81.8699 
0.000649221     0.729382      126.634 
0.000325992     0.346481     -94.9697 
6.34768e-05     0.828830      121.675 
0.000123745    0.0474586     -71.5651 
0.000123701     0.457428      131.009 
0.000245474     0.849496      122.005 
0.000123810     0.345504     -92.4896 
6.03591e-05     0.360498     -92.3859 
0.00100018     0.483287      126.158 
8.61868e-05    0.0750387      126.870 
0.000731853    0.0671167      116.565 
0.000758795     0.504269      126.529 
0.000524800     0.695233      122.661 
0.000147181      2.33453      110.293 
7.35125e-05     0.225116     -90.0000 
0.00111822     0.240124     -90.0000 
0.00100284      2.32116      110.415 
0.000343268     0.492290      127.569 
0.000929214     0.715981      123.024 
0.000270322    0.0949173      108.435 
0.000306590    0.0618785     -104.036 
0.000339400     0.109258      105.945 
0.000181900      2.32644      110.762 
0.000636821     0.736756      123.366 
0.000118090      2.27373      110.456 
0.000454880     0.255132     -90.0000 
5.77775e-05      2.33978      110.638 
0.000223506      2.25445      110.232 
5.68618e-05      2.54740      109.604 
0.000423116      2.56659      109.807 
0.000367257     0.757556      123.690 
0.000708929     0.255573     -86.6335 
0.000306584      2.23519      110.004 
0.000104001      2.34861      110.166 
0.000148491     0.778380      123.996 
4.91237e-05      2.57171      110.122 
9.71053e-05     0.799224      124.287 
0.000142959      2.59098      110.319 
0.000363098      2.21597      109.773 
0.000141110     0.495483      125.134 
4.75595e-05     0.811668      123.690 
9.22891e-05      2.35761      109.698 
0.000318992     0.820088      124.563 
0.000404204     0.270556     -86.8202 
9.18508e-05      2.59623      110.630 
0.000389042    0.0600310     -90.0000 
0.000132940      2.61558      110.822 
4.48308e-05     0.474586      124.695 
0.000129137     0.123757      104.036 
0.000208081     0.316589      121.430 
0.000128256     0.487001      123.690 
0.000171976     0.840969      124.824 
8.48710e-05      2.35259      109.354 
4.30518e-05      2.64037      111.315 
8.47285e-05     0.285542     -86.9872 
4.25829e-05      2.67930      111.679 
4.21761e-05      2.21094      109.407 
0.000205193      2.69880      111.858 
0.000204337     0.849629      125.655 
8.30567e-05     0.315163     -90.0000 
0.000528447      2.19679      109.537 
0.000197259     0.478839      122.196 
4.08532e-05     0.330170     -90.0000 
4.07911e-05     0.218516      105.945 
0.000159294     0.330511     -87.3974 
0.000274537      2.89371      107.491 
0.000155948      2.34766      109.008 
4.00695e-05     0.138365      102.529 
3.95917e-05     0.732771      124.992 
7.78563e-05     0.241993     -82.8750 
0.000229051     0.858464      126.469 
0.000507440    0.0750387     -90.0000 
3.87899e-05     0.153050      101.310 
0.000330100     0.345504     -87.5104 
0.000149424      2.71833      112.033 
3.82421e-05     0.200228      102.995 
0.000363394     0.324667      123.690 
0.000477108      2.90357      107.119 
0.000276974     0.229574     -78.6901 
0.000109499     0.476717      118.179 
0.000177002      2.35704      108.545 
7.09306e-05     0.182577      99.4623 
0.000105554     0.720528      125.676 
0.000178574     0.879459      126.674 
0.000103022     0.150826      95.7106 
0.000314382      2.90803      107.402 
0.000169505     0.469817      116.565 
0.000168479      2.72400      112.326 
0.000264104     0.888504      127.451 
0.000498633     0.360498     -87.6141 
0.000132021      2.19207      109.185 
0.000159296      2.35231      108.198 
3.27737e-05     0.476953      114.146 
0.000119406     0.708391      126.384 
9.32348e-05     0.165766      95.1944 
0.000241212      2.17790      109.315 
0.000211295     0.471014      112.479 
3.15166e-05      2.73789      112.207 
6.20804e-05     0.214878     -77.9052 
0.000211663     0.897709      128.211 
0.000119207      2.74359      112.497 
0.000118572     0.345504      124.380 
0.000481443      2.91792      107.032 
5.96152e-05      2.44831      115.780 
0.000735690     0.218516     -74.0546 
5.89519e-05      2.34789      107.867 
5.72758e-05     0.150077      90.0000 
2.88613e-05      2.45487      116.095 
0.000243501    0.0912885     -80.5377 
5.72466e-05     0.909548      127.626 
8.25635e-05     0.180717      94.7636 
2.85858e-05      2.33361      107.981 
5.62681e-05      2.46151      116.409 
5.57463e-05      2.08083      111.560 
0.000386043     0.918788      128.367 
0.000108928     0.465482      110.772 
0.000578826     0.375494     -87.7094 
2.78453e-05      2.32903      107.629 
0.000106716      2.48839      116.874 
2.75285e-05     0.594655      132.955 
0.000398293      2.07248      112.098 
7.99342e-05      2.32452      107.277 
2.69851e-05      2.74937      112.786 
2.68077e-05      2.59028      118.347 
0.000128779     0.764217      109.502 
0.000127862      2.61062      118.480 
0.000125309     0.474586      108.435 
7.64007e-05      2.92235      107.314 
9.61907e-05     0.195677      94.3987 
5.04831e-05     0.604981      133.995 
2.57735e-05      2.17298      108.942 
5.06995e-05      2.88458      109.750 
5.04632e-05      2.32011      106.923 
2.54180e-05     0.165085      90.0000 
0.000264494     0.333226      125.838 
0.000640262      1.19853      133.478 
7.51251e-05     0.928177      129.094 
0.000116506      2.46822      116.721 
7.20185e-05      2.31579      106.568 
0.000264923      2.63097      118.612 
9.38329e-05     0.180093      90.0000 
0.000137865      2.88969      110.030 
7.04891e-05     0.817750      132.769 
2.37316e-05     0.615500      135.000 
0.000111697     0.470056      106.699 
0.000273552     0.759338      108.435 
4.56832e-05     0.604981      136.005 
4.58250e-05      2.31155      106.211 
0.000105547     0.135901      83.6598 
0.000175827      2.93227      106.946 
4.43797e-05      2.30741      105.853 
0.000124865     0.828014      133.531 
0.000535534      2.06431      112.641 
0.000112677      2.48118      103.288 
0.000103864     0.615866      136.975 
0.000178411     0.195101      90.0000 
0.000120568      2.44808      116.565 
6.23673e-05      2.89486      110.309 
0.000159202      2.95102      107.140 
2.10199e-05      2.29939      105.134 
4.08291e-05      2.49578      103.209 
0.000120891     0.390490     -87.7974 
0.000115724     0.465966      104.931 
2.02161e-05      2.29552      104.772 
5.90766e-05     0.768347      107.037 
5.87347e-05      2.90011      110.587 
0.000651126     0.849231      133.568 
0.000127888    0.0765248     -78.6901 
0.000147995      2.49240      102.873 
0.000287876     0.391354     -85.6013 
1.95412e-05      2.29174      104.409 
0.000111243     0.626921      137.911 
0.000127275      2.63819      118.898 
7.60998e-05      1.20890      133.994 
0.000104655      2.68239      105.895 
1.89183e-05      2.28805      104.045 
9.91248e-05     0.764084      105.961 
0.000209935      2.96980      107.332 
7.25749e-05      2.90542      110.864 
0.000390922      1.21974      133.504 
3.68627e-05     0.120996      82.8750 
1.85827e-05      2.28445      103.680 
0.000188750      2.67852      105.601 
5.28859e-05     0.210644      94.0856 
1.83751e-05      2.42863      116.399 
3.58752e-05      2.28095      103.314 
0.000102840      2.36822      116.719 
1.78440e-05     0.138365      77.4712 
1.77808e-05      2.60492      103.324 
0.000266602     0.462326      103.134 
0.000161834     0.638138      138.814 
1.73426e-05      2.29217      102.862 
0.000155673     0.123757      75.9638 
6.67550e-05      2.91080      111.140 
3.35478e-05      2.65134      118.741 
3.37065e-05      2.28888      102.496 
0.000190211     0.760095      104.873 
0.000253656      2.47777      102.950 
0.000306411     0.210108      90.0000 
8.24622e-05      2.60150      103.002 
0.000364509     0.406319     -85.7636 
6.40902e-05      2.28567      102.129 
0.000103610      2.70516      106.419 
0.000197844      2.65859      119.025 
9.17503e-05      2.98861      107.521 
1.59941e-05      2.37501      117.043 
0.000202102      2.05047      112.802 
0.000168920      2.99317      107.794 
0.000333694      2.36165      117.208 
4.60504e-05      2.91624      111.415 
4.54365e-05      2.28257      101.761 
0.000151546      1.23012      134.011 
0.000187621     0.649508      139.686 
5.77578e-05      2.29427      101.317 
4.30882e-05      2.93571      111.581 
9.32367e-05     0.756382      103.774 
0.000232984      2.05633      113.188 
2.84027e-05     0.106121      81.8699 
1.42850e-05      2.58353      102.753 
0.000212839      1.24096      133.530 
0.000106207      2.29137      100.949 
7.87823e-05      2.94126      111.853 
0.000268786     0.459149      101.310 
1.35628e-05      2.87624      106.350 
7.69629e-05     0.752949      102.665 
5.03183e-05    0.0912885      80.5377 
4.87666e-05      2.87205      106.063 
0.000122063      1.67935      108.767 
0.000209887     0.422622     -83.8845 
0.000137871      2.70095      106.114 
6.11555e-05      3.01206      107.979 
0.000106567      2.28857      100.580 
8.87960e-05     0.749802      101.546 
0.000488013      1.25134      134.028 
7.05771e-05      2.94688      112.124 
0.000148612      2.66590      119.307 
3.30652e-05     0.661022      140.528 
0.000109384      3.01672      108.250 
0.000467369     0.651585      141.546 
3.35971e-05    0.0474586      108.435 
8.69801e-05     0.746943      100.418 
0.000170444      1.67458      108.281 
9.47327e-05      2.30063      100.144 
9.22249e-05      2.95256      112.394 
5.14026e-05      2.86793      105.774 
0.000249403     0.210644      85.9144 
0.000129272     0.661874      86.0995 
1.07045e-05     0.109258      74.0546 
6.16370e-05     0.424483     -81.8699 
9.53640e-05    0.0335583      116.565 
1.95677e-05    0.0212241     -135.000 
1.02197e-05      2.36855      117.531 
0.000237838      2.35525      117.700 
0.000167816     0.223106     -70.3462 
0.000234481     0.439345     -82.1467 
0.000406699      3.04047      108.699 
0.000272766      1.27256      134.044 
7.50527e-05      2.28586      100.211 
0.000164394      2.04854      113.739 
9.96684e-05      2.29804      99.7760 
0.000111917     0.900840      87.1352 
7.44287e-05      1.66994      107.792 
1.84492e-05     0.128226      69.4440 
0.000102464      2.95831      112.662 
0.000134471      1.79375      104.042 
0.000106949      2.88238      105.693 
9.07886e-05      2.67328      119.587 
6.56776e-05    0.0212241      135.000 
3.40008e-05      2.62538      96.2353 
4.91440e-05      1.66541      107.300 
0.000101220     0.663064      84.8056 
0.000221103      1.36325      129.640 
6.90228e-05      2.62379      95.9095 
1.50846e-05     0.134233      63.4349 
1.54458e-05      1.66641      103.542 
0.000195350      3.42960      108.352 
0.000200691      2.96413      112.930 
0.000148298      2.05463      114.122 
7.55246e-06      1.67759      102.924 
0.000187185      2.28325      99.8400 
0.000249156     0.916689      86.2452 
6.34047e-05      1.67429      102.423 
4.77549e-05    0.0335583      153.435 
6.18904e-05      2.68072      119.866 
0.000113788     0.495483     -88.2643 
9.11602e-05      1.37287      130.122 
7.04576e-05      1.79017      103.576 
5.42470e-05      2.62229      95.5833 
0.000116196    0.0300155      180.000 
6.64079e-05     0.342229      127.875 
0.000147228      1.28304      134.526 
1.97980e-05     0.454217     -82.4054 
6.60437e-06      1.66034      108.443 
6.58414e-06      2.46657      103.368 
7.91516e-05      2.89683      105.613 
6.67836e-05      1.67113      101.920 
0.000524916      2.14520      132.164 
0.000163504      1.62429      132.379 
4.10991e-05     0.141583      57.9946 
0.000140374      2.63722      95.5516 
2.34286e-05      2.47008      103.707 
2.46660e-05      2.68823      120.144 
0.000422495      3.43436      108.589 
0.000116823      2.79139      88.1514 
0.000120443     0.930008      127.822 
1.21723e-05     0.212241      81.8699 
5.57578e-05      1.66515      108.933 
0.000168889     0.510263     -90.0000 
4.57816e-05      2.70875      120.259 
0.000121378      2.13869      81.5259 
0.000222906      2.36226      118.022 
0.000139543      2.89814      87.3287 
0.000105864      2.27109      100.278 
3.64603e-05      1.66810      101.416 
4.68307e-05      2.71634      120.532 
7.54223e-05      1.26182      134.518 
4.43950e-05     0.150077      53.1301 
1.95324e-05      1.78670      103.108 
7.32193e-05      2.06081      114.503 
3.32163e-05      2.88434      116.565 
0.000315531      2.14095      81.1286 
2.70771e-05      2.47368      104.045 
5.62402e-05     0.838421      134.275 
0.000123910     0.905404      63.4137 
0.000167631      1.63444      132.767 
1.44703e-05      2.74458      120.913 
2.79906e-05      1.68281      101.315 
2.27903e-05      2.91534      105.818 
1.39818e-05      2.76517      121.020 
0.000161187    0.0335583     -153.435 
3.10821e-05      2.77639      88.1414 
4.55718e-06      2.72381      106.633 
1.34828e-05      2.77293      121.286 
4.09970e-05      2.28073      99.4685 
2.18999e-05      2.89888      87.0324 
1.76554e-05      2.25907      100.720 
4.48688e-05     0.159534      48.8141 
1.27048e-05      2.65611      105.065 
4.87095e-05      1.67993      100.813 
2.98436e-05      2.79356      121.389 
1.29984e-05      2.76567      107.348 
8.55274e-06      2.91129      105.534 
3.34174e-05      2.91313      87.3425 
2.54188e-05     0.351643      129.806 
5.54706e-05      2.26846      99.9048 
0.000120191      2.89108      116.831 
8.34924e-05      1.67008      109.420 
2.00660e-05     0.754727      107.354 
6.97685e-05      2.77692      87.8319 
1.22409e-05      2.78000      107.256 
5.41249e-05      2.92978      105.738 
8.08662e-05      2.24433      100.791 
1.92086e-05      1.12402      133.918 
5.37467e-05      2.80140      121.651 
4.07453e-06      2.24719      101.167 
8.24229e-05      2.91387      87.0477 
0.000142941      1.14524      133.938 
2.96118e-05      2.78449      107.551 
3.92011e-06      1.78336      102.639 
6.83434e-05      2.47737      104.381 
3.88343e-06      2.06708      114.881 
7.59859e-06      2.63393      104.519 
7.19131e-05      2.05347      115.057 
0.000126188     0.642359      142.595 
7.28111e-06     0.917794      85.3103 
6.48137e-05     0.169793      45.0000 
0.000103428      2.04697      94.6258 
2.96448e-05      1.67718      100.309 
3.61871e-06     0.676847      86.1859 
0.000128813      1.10232      75.0083 
3.10219e-05      2.80931      121.911 
6.00127e-05      1.64467      133.151 
2.00927e-05      2.28497      122.119 
2.86439e-05      2.79881      107.458 
3.90080e-05     0.661022      87.3974 
1.54078e-05     0.480482      104.470 
6.36028e-05      2.82998      122.009 
6.93634e-05     0.510484     -88.3153 
5.38617e-05      2.91468      86.7531 
4.88277e-05      2.30567      122.237 
2.88553e-05     0.361434      131.634 
5.59937e-05      2.14332      80.7322 
1.19594e-05     0.335583     -100.305 
0.000146396      1.65565      132.796 
2.65032e-05      2.95247      106.219 
3.58041e-05      2.77753      87.5225 
2.90849e-05      2.45365      79.7829 
0.000116215      2.63872      95.8760 
4.56170e-05      2.80334      107.751 
1.56869e-05      3.06440      109.140 
2.69617e-05      1.67456      99.8042 
2.88340e-06     0.932753      85.3856 
0.000137022      2.45104      80.1282 
9.29271e-05      2.94832      105.939 
5.18020e-05      2.91557      86.4586 
7.94254e-05      2.83797      122.266 
5.40426e-06      2.11766      124.022 
3.51272e-05     0.338590     -102.804 
8.02518e-06      2.13906      79.0803 
1.49058e-05      2.48114      104.717 
2.49763e-05      2.36935      118.343 
7.01650e-05      1.97590      120.061 
4.01630e-05     0.848966      135.000 
5.24567e-06      2.14196      78.6861 
4.15195e-05      1.67513      109.904 
3.34258e-05     0.350359      133.264 
9.93384e-05      2.03085      94.2380 
2.59424e-06      2.14495      78.2930 
0.000110419      2.14805      77.9010 
7.95399e-05      2.31371      122.551 
5.94337e-05    0.0474586     -161.565 
2.08876e-05      2.27831      99.0962 
2.75881e-05      1.65726      99.3813 
6.49544e-05      1.09853      75.7644 
5.19407e-05      2.91653      86.1644 
2.39664e-06     0.931666      86.3056 
6.36066e-05      2.80543      125.650 
3.05335e-05      2.81764      107.658 
1.78579e-05     0.180717      41.6335 
9.95494e-06      3.03569      108.430 
2.12092e-05     0.511145     -86.6335 
8.67084e-06      2.77822      87.2133 
2.99763e-05      3.42491      108.113 
2.81663e-05     0.654344      143.393 
4.32681e-06     0.323973     -103.392 
2.81587e-05     0.360811      135.000 
1.56761e-05      2.04716      114.677 
1.58673e-05      1.16646      133.957 
4.58870e-05      1.65488      98.8686 
4.66706e-05      2.91758      85.8703 
3.85317e-05      2.15531      132.460 
3.77521e-05      3.42027      107.874 
7.94255e-06      1.65497      133.530 
1.57377e-05      1.96292      120.280 
7.65352e-06     0.491604     -77.6609 
-4.92170e-05     0.724269      55.9807 
7.82585e-06      2.76323      87.1982 
7.77644e-06      2.23246      101.242 
1.50769e-05     0.327774     -105.945 
-4.86849e-05      1.84221      96.5490 
1.85307e-05      1.66588      133.175 
-2.21528e-05      3.14705      104.626 
7.34983e-06      1.35172      130.046 
7.32272e-06      2.62087      84.7432 
3.67440e-06    0.0450232      180.000 
-7.26660e-06      1.13929      110.834 
-0.000598507      5.62171     -139.976 
-0.000618323      5.33391      6.94905 
-0.000279125      8.61843      149.686 
-0.000482197     0.700718     -80.1342 
-0.000270594      4.79171      104.687 
-0.000396501      5.42288      149.038 
-0.000291026      3.70589     -47.7903 
-0.000116848      8.33873      131.863 
-0.000251154      4.40510     -16.2122 
-0.000317361      8.58721     -59.4484 
0.000181781      7.15508      90.3605 
0.000305413      6.70498     -90.5130 
0.000212577      5.81684     -149.468 
0.000244785      7.14629     -80.5782 
-0.000215299      3.38070      120.093 
0.000141958      2.09280      33.0006 
0.000336716      7.39817      139.851 
7.50783e-05      6.68997     -90.5141 
0.000147202      5.57117      53.0977 
-0.000108440      3.75322      37.6901 
0.000109178      7.06268      32.0673 
0.000232958      5.38543      80.3828 
-0.000268403      6.74083     -108.955 
0.000204866      3.25402     -34.8665 
-0.000259551      3.80090     -37.1369 
0.000290633      5.89900     -46.4432 
-0.000164996      2.82700      31.3315 
0.000139724      7.89588      35.4104 
0.000233855      6.49007     -21.7005 
6.78374e-05      6.45598      87.6019 
0.000100670      6.84889      110.377 
-0.000284219      5.35069      128.286 
-3.45867e-05      4.78792      104.513 
-9.85015e-05      7.62996     -115.005 
0.000191790      3.64675     -84.5686 
-0.000253811      5.23400      40.5870 
0.000187733      5.56218      53.2213 
-9.93026e-05      8.92279     -128.585 
0.000158797      5.62243     -93.8263 
-9.76926e-05      9.55296      50.1593 
-9.76237e-05      7.51029      16.1208 
-0.000279990      3.74136      37.8306 
-0.000125336      8.59790      149.722 
0.000156941      8.16884      50.9654 
3.34584e-05      1.63676     -27.2582 
-3.33430e-05      7.10572     -31.7078 
3.32402e-05      6.09548      87.6011 
0.000215943      7.90812      35.3474 
-6.40730e-05      5.30323     -86.7554 
9.31332e-05      7.55258      12.2701 
6.24117e-05      6.23860      96.7626 
6.40507e-05      4.31955     -122.089 
3.24521e-05      3.39371     -106.427 
-9.13663e-05      4.05969      131.403 
-9.14543e-05      9.18163     -146.261 
-0.000119433      9.54335      50.2285 
-0.000121032      3.51082    -0.979738 
0.000121470      5.34101      14.9734 
9.21058e-05      6.94616      59.5012 
3.14523e-05      6.22203      96.6485 
-6.22161e-05      2.87908     -145.395 
-8.92880e-05      4.37642     -6.30005 
-3.11476e-05      5.17411      28.1966 
-5.99543e-05      7.94795     -43.2402 
-8.96941e-05      8.08967     -138.836 
3.08101e-05      7.30989      34.2104 
3.06848e-05      7.37950     -27.3493 
5.97313e-05      9.04984      38.0662 
-5.99560e-05      3.37320      119.873 
0.000117968      2.65830     -2.91248 
8.93156e-05      3.26262     -35.0827 
5.94947e-05      3.38950     -106.184 
8.84230e-05      4.33227     -121.983 
0.000117799      9.15997     -53.9947 
-5.95061e-05      8.27748      144.810 
-5.93341e-05      2.73718     -45.8886 
-5.87656e-05      8.93216     -128.660 
8.82982e-05      6.50401     -21.6517 
5.89631e-05      6.10987      87.7476 
-5.83840e-05      8.20405     -125.552 
-0.000116798      2.87059     -145.641 
3.00293e-05      9.49107      131.349 
8.78356e-05      1.81804     -127.622 
-2.96104e-05      7.52470      16.0890 
5.83560e-05      7.36684     -27.4003 
-2.95733e-05      7.09296     -31.7715 
-2.95616e-05      4.76594      104.209 
2.95099e-05      7.68976      73.6837 
-2.94068e-05      4.42372     -16.3446 
5.81003e-05      8.23362     -55.6133 
-2.93327e-05      8.03661     -125.354 
-2.92693e-05      1.89593      143.044 
-2.91359e-05      2.81922      31.0710 
2.89487e-05      7.36595     -80.2700 
4.88475e-05      8.32776      23.0095 
2.87876e-05      4.34979     -107.872 
2.87929e-05      6.95379      59.3946 
-2.86525e-05      3.10741     -10.0128 
-2.86604e-05      1.88396      142.770 
-2.86369e-05      7.83313     -149.507 
2.86490e-05      9.48116      131.281 
2.85698e-05      5.51504      166.153 
5.16204e-05      5.85546      112.753 
-2.84184e-05      8.57959     -59.5347 
-0.000233381      5.57834      10.2201 
0.000170189      10.7341      45.0000 
-5.36482e-05      6.67350     -121.585 
0.000166491      4.45817     -118.985 
-0.000308166      8.09955     -138.756 
-0.000180749      6.71436      17.0194 
-2.55856e-05     0.683470     -8.84181 
5.03300e-05      10.3885      43.3024 
-0.000156166     0.698304     -8.65254 
6.93463e-05      4.59563      87.1923 
-4.64343e-05      6.74454     -119.588 
4.77177e-05      6.62393     -6.24343 
8.97962e-05      10.3994      43.2457 
-8.95492e-05      7.02155     -104.602 
6.68277e-05      8.61370     -44.1529 
4.38620e-05      3.96119     -1.51971 
-0.000190428      4.71885     -53.5292 
-4.44360e-05      5.93863      129.154 
-4.47573e-05      7.48428      65.4881 
0.000164270      3.63365     -100.711 
2.25616e-05      4.61138      87.0151 
0.000132585      6.62232     -6.11435 
7.95289e-05      5.20031     -146.172 
-4.04819e-05      4.39246     -161.070 
-0.000105315      2.27114     -156.662 
-2.15569e-05      5.13742      31.5077 
-0.000123979      7.47807      65.5927 
-0.000145876      6.66198      166.590 
9.96541e-05      10.2249      134.643 
-0.000109358      4.37827     -161.006 
-4.09303e-05      4.43945      173.400 
2.09917e-05      8.23502      53.4402 
-7.90074e-05      5.94812      129.266 
-0.000106148      5.15806      31.5627 
-0.000138598      8.21980     -144.654 
-7.12490e-05      4.42629      173.185 
-5.74704e-05      7.02535     -104.721 
-2.02874e-05      5.45960      11.2466 
1.99391e-05      8.45774     -43.2025 
0.000154802      5.01305      56.5954 
0.000111067      6.63724     -6.10055 
-1.97375e-05      6.44334      14.4247 
-0.000158535      3.64020     -38.4717 
0.000112726      5.25152     -102.368 
3.82786e-05      6.38852     -54.5570 
-1.93570e-05      8.06677      111.603 
-1.93110e-05      6.22199      13.0977 
8.33486e-05      6.42692     -157.207 
-3.77066e-05      4.38659      176.862 
-5.54356e-05     0.696204     -7.43141 
9.88005e-05      10.3891      43.1854 
0.000434388      10.7447      44.9434 
1.87366e-05      5.86618     -172.806 
1.85937e-05      7.67534      78.2726 
9.13376e-05      7.17005      40.5902 
-3.59362e-05      6.21861      12.9630 
-0.000204541      7.49174      65.6401 
-7.88271e-05      5.44488      11.2774 
0.000183861      6.88510     -12.5837 
-0.000142950      8.07231      111.703 
5.25764e-05      8.45882     -49.5332 
-1.81933e-05      1.69561     -76.6956 
1.81684e-05      8.62448     -44.0835 
3.48670e-05      3.32184      144.368 
0.000114223      7.67841      78.1630 
9.23160e-05      6.38504     -54.3692 
-1.78677e-05      5.95763      129.378 
6.64500e-05      10.2144      134.583 
-9.82613e-05      8.00096     -124.616 
-7.95351e-05      4.40078      177.068 
3.38901e-05      8.22609      53.5242 
-0.000106613     0.681325     -7.59464 
3.29886e-05      1.58486      17.0708 
-1.71232e-05      5.96716      129.489 
-1.70685e-05      7.02918     -104.839 
-7.90078e-05      5.59047      10.0414 
-3.28679e-05      5.65393      101.010 
1.70138e-05      8.62338      134.929 
0.000203821      5.86930      112.696 
3.31324e-05      8.68705     -45.0700 
0.000262768      7.20975      146.543 
6.19929e-05      6.82299     -60.7850 
1.65810e-05      1.10669     -122.850 
-1.65000e-05      2.91557     -86.4586 
9.88501e-05      9.31815     -53.4448 
1.64407e-05      4.61219      86.8290 
-5.75646e-05      2.25143     -156.862 
1.61581e-05      4.45688     -118.554 
-1.59143e-05      5.97671      129.600 
-3.00767e-05      6.23323      12.9321 
-3.08074e-05      1.55920     -78.9010 
2.96308e-05      8.60215      134.929 
-5.92948e-05      4.65308     -177.967 
3.10139e-05      2.71991     -3.47970 
8.59287e-05      8.44908     -49.6106 
1.57589e-05      3.34278      144.308 
-3.09487e-05      2.87577     -133.520 
-5.86962e-05      3.75557     -176.793 
-1.56051e-05      6.70443      17.1796 
4.42198e-05      2.32644     -110.762 
-0.000135782      4.44120      173.208 
0.000109734      8.22926      53.6703 
-2.98314e-05      7.04369     -104.808 
9.46307e-05      8.69768     -45.1398 
-0.000125616      8.11085     -138.826 
-1.53622e-05      2.91468     -86.7531 
2.95600e-05      4.70103      168.407 
-0.000138461      8.10408     -134.250 
8.88881e-05      3.33060      144.158 
-4.31848e-05      5.64209      101.189 
6.99591e-05      7.63443     -140.020 
-2.93061e-05      5.98629      129.711 
6.63845e-05      7.67664      21.5518 
2.84933e-05      6.39379     -54.2599 
-8.35718e-05      7.99245     -124.527 
-4.16785e-05      6.64391      166.686 
1.46547e-05      5.21278     -146.264 
-0.000104996      2.86546     -133.302 
2.79336e-05      9.30892     -39.7707 
0.000195578      10.2039      134.523 
-1.46387e-05      4.12451      32.0651 
-2.81559e-05      4.72778     -53.3829 
7.69967e-05      2.72087     -3.79515 
4.03755e-05      1.56614      16.7071 
4.05525e-05      7.28121     -161.007 
5.19632e-05      2.30711     -110.545 
3.63560e-05      7.19723      146.477 
-1.40741e-05      7.82502     -158.994 
3.98865e-05      5.30727     -73.9200 
1.39804e-05      8.89390     -120.284 
-0.000154885      5.82752      8.73214 
-6.57229e-05      7.96768      128.964 
-5.07599e-05      1.54448     -78.7938 
-4.21680e-05      4.11180      32.1761 
1.37692e-05      6.38400      79.1669 
-1.37919e-05      6.26657      128.485 
1.37641e-05      8.22038      53.7546 
-4.87060e-05      8.78252      49.9180 
2.70871e-05      9.51387     -134.680 
1.36945e-05      4.57993      87.3706 
-1.36643e-05      6.78342      168.392 
0.000106896      6.31110      146.042 
3.99966e-05      10.5007     -135.116 
5.24063e-05      8.45223     -128.008 
-0.000115629      8.46644     -64.1640 
1.36033e-05      6.80257     -60.8337 
-2.58904e-05      5.17871      31.6173 
-3.86525e-05      6.13656      168.582 
6.05416e-05      9.33890     -131.681 
-0.000109496      7.22966      114.386 
7.85688e-05      7.68150      78.0534 
-6.98624e-05      1.45263     -73.8025 
-4.93419e-05      8.62321      47.8216 
-5.04740e-05      4.91271     -176.848 
-6.13087e-05      8.47555     -124.620 
-1.31033e-05      6.27973      176.849 
-3.75617e-05      6.76872      168.366 
2.58463e-05      9.52443     -134.745 
3.73184e-05      6.79527     -60.9442 
-3.70220e-05      5.41251     -21.8029 
-1.30020e-05      6.00551      129.931 
-2.47528e-05      5.16593      31.7046 
-1.29789e-05      7.20980      114.327 
-3.67529e-05      4.75776     -53.2006 
2.48375e-05      6.83960      130.644 
6.69694e-05      5.85001      145.658 
0.000158006      10.5113     -135.174 
3.78657e-05      7.06170     -13.3880 
-5.88796e-05      5.43017      11.3084 
1.27352e-05      7.26196     -18.1710 
1.26876e-05      6.63566     -5.97170 
-9.10562e-05      7.98395     -124.438 
1.26160e-05      1.11490     -123.498 
3.59942e-05      9.30335     -129.439 
1.25484e-05      8.53864      134.644 
-1.24828e-05      6.27833      128.400 
0.000170616      9.52436     -134.872 
2.25960e-05      4.62892      86.4683 
-5.45417e-05      2.87640     -133.097 
1.23816e-05      9.29933     -39.6996 
4.62969e-05      7.41932      139.837 
0.000187517      7.29541     -161.045 
8.31869e-05      10.3789      43.1250 
3.53456e-05      4.66511      15.2858 
-0.000245316      7.95825      128.880 
6.54103e-05      8.44299     -127.928 
1.21581e-05      8.88634     -120.200 
-3.39503e-05      8.39708     -142.476 
2.36065e-05      5.31145     -73.7644 
5.45715e-05      7.62293     -139.947 
-0.000120237      9.54326      36.5626 
-1.21326e-05      7.43200     -144.033 
-1.20489e-05      3.87890     -36.8211 
1.19932e-05      8.79425      134.101 
2.36011e-05      7.07630     -13.3598 
-0.000126139      7.57522     0.227025 
-2.23462e-05      3.74145     -176.551 
1.19291e-05      3.50337     -147.055 
-0.000119071      8.45991     -64.2554 
3.28530e-05      5.24833     -102.208 
-1.18583e-05      6.62931      166.656 
1.18115e-05      7.60160     -27.6300 
3.44326e-05      8.50688      134.571 
-4.30998e-05      4.65363     -177.782 
1.17605e-05      8.43937     -49.6883 
-4.17935e-05     0.664590     -6.48307 
-0.000100892      5.33678     -48.8709 
-2.27314e-05      6.28057      176.712 
2.23184e-05      8.70827     -45.0698 
1.16928e-05      1.13571     -123.711 
-0.000146892      4.92770     -176.857 
-3.37533e-05      8.55429      41.5150 
0.000190432      6.94644     -86.0357 
1.15862e-05      2.31241     -110.893 
-1.15417e-05      7.18496     -90.0000 
-6.36663e-05      3.62846     -38.6191 
-5.33597e-05      7.41986     -143.965 
9.31636e-05      10.2794      46.0056 
3.36644e-05      7.01699      77.6566 
1.14386e-05      5.58877     -93.2327 
6.47489e-05      2.58755      21.0578 
-2.21464e-05      5.41811     -21.9502 
2.17169e-05      6.84939      130.740 
-7.31494e-05      7.18497     -89.8803 
-1.12786e-05      6.02482      130.150 
5.09959e-05      7.68462      77.9439 
5.25671e-05      2.29306     -110.677 
0.000212836      5.87511      112.832 
0.000107985      7.70603      175.308 
-7.93573e-05      2.44134      50.7379 
5.24822e-05      7.07285     -13.2416 
-0.000137144      7.65882     -118.672 
1.11300e-05      9.30543     -129.309 
-2.19369e-05      4.65115     -30.2012 
-1.10986e-05      6.75402      168.341 
2.04149e-05      4.56366      87.7384 
4.16420e-05      4.68356      15.4145 
-3.18117e-05      9.82574     -49.0845 
2.12975e-05      9.07985      55.0254 
-5.69374e-05      5.67281      4.55216 
-3.10970e-05      8.63330      47.7478 
2.12878e-05      3.19274     -72.5062 
-8.80295e-05      8.07787      111.801 
-8.71782e-05      9.49348      50.4490 
7.22243e-05      9.16880     -53.9188 
8.81141e-05      10.7554      44.8869 
1.08836e-05      8.85370      37.7042 
2.13347e-05      8.49635      134.499 
-3.98081e-05      6.90061      89.1277 
0.000150776      6.99913      77.7504 
-1.07577e-05      6.77784      157.353 
3.06413e-05      2.70589     -3.81619 
1.07435e-05      7.66268      21.5930 
5.08704e-05      7.17763     -147.375 
-1.06665e-05      4.76676     -53.0561 
-3.06168e-05      5.42724      11.1530 
-1.06962e-05      1.54163     -79.3409 
1.06286e-05      1.38859      10.5873 
4.09415e-05      8.49096     -129.621 
2.08030e-05      9.32709     -53.3707 
-3.82376e-05      8.56554      41.4485 
-2.09210e-05      4.87314      105.532 
7.76161e-05      9.31771     -131.673 
-1.05257e-05      7.06204     -104.894 
2.58806e-05      7.31448     -160.972 
-1.05191e-05      6.04422      130.368 
9.07272e-05      4.03070     -76.2250 
-7.64559e-05      8.49643     -124.646 
4.82737e-05      7.95648     -120.723 
0.000125084      7.35689     -7.73174 
-4.91023e-05      5.70394      4.67851 
-1.98904e-05      8.77286      49.9930 
1.03378e-05      5.32586     -73.8095 
2.95962e-05      7.43080      139.911 
1.02575e-05      6.38161     -54.1812 
-1.02706e-05      6.08486      130.599 
3.88582e-05      4.68880      127.202 
-4.74818e-05      1.43407     -74.2111 
-1.02403e-05      4.65872     -30.3607 
-1.99505e-05      3.58501     -45.6784 
-2.91653e-05      8.12215     -138.896 
-1.00914e-05      7.59022     0.226576 
0.000100225      10.5114     -135.289 
2.00105e-05      9.28644     -129.166 
5.61597e-05      8.47513      134.498 
1.89056e-05      6.65216     -6.08681 
1.00027e-05      6.96845     -15.3547 
-3.81351e-05      9.83557     -49.0184 
1.93535e-05      9.08846      54.9479 
-9.93463e-06      3.35946     -50.9744 
-2.86156e-05      4.67167     -30.2677 
-2.85337e-05      5.73509      4.80349 
-0.000134191      9.86200      137.405 
-9.90545e-06      6.15127      168.609 
9.84924e-06      2.12057     -115.105 
-9.83741e-06      8.38518     -142.413 
1.89723e-05      6.97008      153.545 
1.90617e-05      6.03347      147.180 
-5.39732e-05      7.97547     -124.349 
-2.86210e-05      5.44660     -67.3176 
3.55583e-05      10.3006      46.0035 
-9.68661e-06      3.26178      56.8181 
-3.69525e-05      7.16996     -89.8801 
5.43775e-05      7.47504      168.893 
-9.67407e-06      6.09464      130.706 
-6.39392e-05      10.0759     -137.596 
-9.00705e-05      7.41104     -144.058 
3.67984e-05      3.28406     -111.993 
9.59538e-06      4.62987      86.2829 
-7.16646e-05      5.76627      4.92711 
7.94385e-05      7.19027     -147.439 
2.80024e-05      9.27697     -129.094 
1.87616e-05      6.97898     -15.2032 
2.76009e-05      8.49861     -129.842 
-1.88261e-05      4.87718      105.702 
-9.52198e-06      7.88931     -24.1296 
9.50403e-06      3.52748      138.449 
-4.52680e-05      3.61675     -38.7675 
-9.45067e-06      7.06591     -105.012 
-0.000132590      9.54637     -128.364 
-9.44149e-06      8.57441      56.5589 
-2.66836e-05      5.57309      9.91637 
-9.41161e-06      8.09361     -134.174 
9.38379e-06      8.33363      23.1044 
9.32501e-06      6.97187      136.657 
-4.47770e-05      9.53121      36.6164 
-9.30262e-06      6.30089      179.181 
9.26368e-06      7.25538     -96.0496 
9.23548e-06      4.95817     -42.4300 
9.24917e-06      4.13472     -120.288 
0.000164842      5.90358     -47.6788 
4.36473e-05      7.44229      139.986 
-7.58195e-05      7.54358      93.4217 
5.36659e-05      7.18468     -12.2958 
8.44203e-05      10.1933      134.463 
2.56579e-05      6.41893     -157.032 
-4.40822e-05      7.87561     -24.1742 
-8.65059e-05      4.88126      105.872 
9.16971e-06      4.79471      73.8341 
-2.68923e-05      7.75169     -15.4906 
9.11944e-06      8.66169      148.815 
-6.07695e-05      8.43138      61.2931 
-9.89733e-05      8.10438     -134.100 
2.66346e-05      5.83762      145.575 
1.80188e-05      8.57122     -130.882 
-0.000140090      8.49337     -152.667 
0.000221357      9.51373     -134.936 
2.64004e-05      4.70202      15.5422 
-0.000147783      5.51802     -68.8019 
-9.21748e-05      7.40773     -143.896 
5.00463e-05      10.3679      43.1817 
0.000134800      4.26608     -20.1562 
2.55655e-05      8.43378     -127.848 
-8.97515e-06      8.38247     -142.269 
0.000118221      4.79055      74.0065 
2.62412e-05      9.30774     -131.604 
2.64124e-05      6.54588     -21.5062 
-7.39677e-05      7.98787     -124.289 
0.000112912      8.67454      148.866 
-8.94347e-06      2.86616     -132.878 
1.74274e-05      6.99346     -15.1710 
-8.92114e-06      7.06981     -105.129 
0.000272199      7.35893     -7.84753 
8.09008e-05      4.70081     -166.720 
-0.000150011      5.45241     -67.1721 
-1.75130e-05     0.663064     -5.19443 
-8.88325e-06      3.35003     -51.1738 
1.76060e-05      7.21317     -97.2854 
-8.93786e-05      8.02759     -17.2815 
-8.87140e-06      4.36572     -171.699 
9.67729e-05      10.4161      135.467 
1.75158e-05      8.23526     -112.829 
-8.81156e-06      3.28256      56.7422 
1.74144e-05      9.26751     -129.022 
-2.48578e-05      9.84542     -48.9525 
-5.64465e-05      3.39438     -81.8663 
-7.39475e-05      5.32692     -48.9925 
-8.71168e-06      2.90170     -31.4745 
4.07652e-05      5.44647      156.122 
1.71088e-05      7.00233      77.6304 
8.62981e-06      4.02715     -76.4324 
2.49143e-05      4.64688      85.9256 
-8.62768e-06      7.08430     -105.098 
7.97640e-05      7.21509     -97.4037 
0.000111662      7.21084     -12.1285 
2.47307e-05      8.52592     -131.146 
0.000134987      7.72598     -173.761 
-2.46213e-05      8.50497     -124.729 
3.29720e-05      3.27583     -112.335 
-1.66358e-05      7.60531     0.339192 
4.03176e-05      7.15980     -152.146 
-0.000101107      7.17001     -89.7601 
-2.50245e-05      7.76216     -15.3542 
8.46723e-06      7.19617     -12.1536 
4.93175e-05      4.14231     -120.467 
4.07984e-05      4.03826     -76.6894 
-8.44418e-06      5.81268      8.75460 
-8.03951e-05      10.0870     -137.653 
3.31442e-05      6.55140     -21.6284 
-8.43110e-06      5.46149     -178.583 
-8.42762e-06      6.78022      22.3643 
3.25140e-05      8.48900     -129.764 
0.000115787      7.46032      168.871 
2.48478e-05      9.29653     -131.666 
7.13543e-05      8.22945     -112.733 
8.39888e-06      6.83803      130.822 
-3.20353e-05      5.89158     -137.374 
3.23408e-05      3.92424     -81.8652 
-6.48560e-05      8.33412      55.3355 
2.45905e-05      9.43107     -133.907 
3.27942e-05      10.5325      135.173 
1.64129e-05      4.72052      15.6689 
-2.42108e-05      7.00063     -121.951 
-0.000156442      9.53706     -128.294 
8.28354e-06      5.82525      145.491 
0.000153694      10.5220     -135.231 
-1.63208e-05      5.44613     -178.737 
-8.52224e-05      3.55550      116.565 
-8.26271e-06      1.41963     -74.0463 
1.57192e-05      8.46462      134.425 
1.63140e-05      6.98129      77.8446 
-6.25481e-05      4.94268     -176.867 
-2.39102e-05      5.78253      5.06249 
8.20990e-06      7.03304     -14.9570 
-7.05933e-05      4.73129      134.229 
-8.19077e-06      9.50305      50.3792 
-8.17299e-06      3.39653     -81.6157 
-1.62844e-05      5.53485     -25.8668 
-3.14457e-05      8.08346      111.900 
8.16775e-06      7.05934      77.2327 
1.60948e-05      7.93136     -145.169 
6.20364e-05      9.31088     -39.6406 
-2.40105e-05      7.55881      24.3795 
-8.13483e-06      7.22348      114.278 
-2.39191e-05      1.87437     -140.197 
-1.58212e-05      4.19920      26.2949 
-5.22028e-05      2.61002     0.658922 
5.48163e-05      7.49272     -81.4820 
-2.36762e-05      8.44455      61.3420 
-7.79484e-05      3.88198     -36.5111 
-2.34087e-05      9.87792      139.001 
2.34697e-05      4.41005     -90.1950 
-4.69609e-05      4.88539      106.041 
9.23912e-05      6.53745     -21.6768 
-8.08753e-06      7.77664     -15.3249 
-7.63256e-05      9.68985      137.071 
7.65527e-05      9.28656     -131.597 
-3.16688e-05      7.56021     0.227476 
1.59786e-05      7.07398      77.2596 
6.07515e-05      10.1828      134.403 
0.000113423      7.20293     -147.504 
0.000137398      10.6718      44.0884 
5.36918e-05      6.47241     -46.5032 
4.94748e-05      5.45415      156.330 
1.58995e-05      10.5432      135.231 
-1.57539e-05      1.41558     -74.6303 
-7.96392e-06      7.78717     -15.1893 
-6.78309e-05      2.42973      50.5139 
3.12296e-05      5.86128      112.888 
-6.84583e-05      5.73438      92.2499 
-1.55455e-05      3.60506     -38.9168 
-1.56962e-05      5.43113     -178.733 
-7.91024e-06      4.35087     -171.670 
-0.000119535      6.76634      22.4126 
6.81971e-05      7.74513      98.2384 
3.83514e-05      6.97815      77.9651 
-7.91300e-06      5.75132      4.93995 
-3.82575e-05      7.54449      93.5355 
-7.85040e-06      7.24330      104.268 
-1.56443e-05      7.81223     -15.0254 
3.07424e-05      9.40985     -133.905 
0.000105421      10.5644      135.230 
-4.61229e-05      4.16430      68.8869 
2.31605e-05      7.07730      77.1411 
7.83522e-06      8.51605     -131.070 
2.31444e-05      3.26771     -112.679 
6.82951e-05      7.76880     -171.339 
7.79450e-06      7.04754     -14.9255 
7.79060e-06      7.94748     -145.381 
-7.80191e-06      5.55831      9.94301 
-4.55179e-05      7.39561     -143.828 
-2.32037e-05      8.36355      55.2249 
-7.76199e-06      6.17323     -144.494 
7.76302e-06      7.45379      140.060 
7.75494e-06      7.14237      46.9541 
8.26814e-05      10.5995      136.434 
-4.56965e-05      7.54520     0.227928 
7.69098e-06      4.28018     -20.0869 
-7.69465e-06      9.48192      50.3912 
-7.68824e-06      7.00859     -122.055 
1.52846e-05      7.95922     -145.439 
-1.52032e-05      7.24701      104.383 
0.000224916      7.71543     -8.27038 
-2.28811e-05      7.83736     -14.8625 
-1.52439e-05      7.57867      24.4360 
-0.000157617      10.0981     -137.711 
4.50751e-05      8.51462     -131.213 
-1.51307e-05      8.50027     -152.578 
-1.51999e-05      9.85528     -48.8867 
7.60841e-06      8.81547      134.103 
-1.51888e-05      2.90384     -145.731 
6.76931e-05      10.1161      41.5118 
-6.72735e-05      8.02315     -17.1792 
6.74245e-05      3.93701     -82.1124 
2.26215e-05      6.47710     -176.546 
-3.75725e-05      3.46804     -44.8247 
7.58016e-06      7.09528      77.0499 
-3.75324e-05      8.38444      55.1991 
-7.57609e-06      8.13346     -138.965 
-4.48639e-05      4.86683      105.920 
-2.26751e-05      7.87707     -14.6730 
-7.55763e-06      5.53137      10.1498 
7.55914e-06      6.55511     -45.1855 
-0.000171691      7.86209      166.201 
5.98782e-05      8.85421      32.8295 
-4.47705e-05      7.52647     -167.570 
2.99978e-05      3.88242      134.060 
-4.50257e-05      4.16973      68.6945 
-3.73764e-05      6.99959     -29.5331 
0.000104555      8.22366     -112.636 
-1.32641e-05      7.94884      128.796 
-2.24405e-05      3.59339     -39.0672 
8.19898e-05      10.7448      44.8302 
5.23065e-05      6.47300     -46.6910 
-8.94815e-05      8.50670     -152.714 
1.50030e-05      7.97158     -145.501 
-1.49760e-05      1.40112     -74.4677 
-0.000171444      7.92064     -14.5905 
-3.72735e-05      2.89541     -145.976 
-3.73268e-05      7.53019     0.228383 
-2.23790e-05      5.43909      10.9673 
-7.48733e-06      8.10299      111.959 
-7.48594e-06      7.66544     0.448710 
7.46510e-06      7.98395     -145.562 
7.44065e-06      7.32867     -161.010 
3.72540e-05      5.28129     -154.968 
1.48668e-05      8.65393      148.900 
-2.97833e-05      9.45719     -141.440 
-1.48801e-05      7.59234      24.3891 
3.71554e-05      6.49208     -176.554 
7.45165e-06      4.23305     -115.843 
-1.48834e-05      7.65479      158.866 
-7.44860e-06      9.87646      138.878 
1.48666e-05      5.22003      46.3921 
-7.45669e-06      3.39229     -82.1172 
-1.48819e-05      3.45748     -44.6483 
7.45035e-06      7.49051     -81.5955 
7.43885e-06      7.72436     -173.871 
-7.44528e-06      2.80061     -44.5658 
-7.44574e-06      4.72055      134.356 
2.69409e-05      6.54454     -45.2787 
-6.68330e-05      4.16124      68.4269 
6.69026e-05      10.6822      44.1462 
2.97018e-05      8.66679      148.951 
-1.48489e-05      8.10861      112.057 
-7.44921e-06      9.86516     -48.8210 
-7.41197e-06      7.51519     0.228839 
4.45708e-05      10.8085     -135.281 
2.96781e-05      8.02511     -145.892 
-3.30310e-05      4.86273      105.750 
-3.71704e-05      6.01892     -156.503 
-3.71110e-05      7.47012     0.115109 
4.46077e-05      10.1274      41.4555 
-7.43373e-06      4.16955      60.9394 
5.94274e-05      8.84160      32.8822 
-7.42771e-06      7.59339      158.808 
-7.41041e-06      9.55814     -128.309 
1.88364e-05      9.21813     -128.791 
-3.71585e-05      8.46671     -62.5742 
3.71528e-05      9.50311     -135.000 
1.48685e-05      9.26537     -131.589 
1.48407e-05      6.53192     -21.5545 
-1.48452e-05      7.56541      158.726 
-1.48713e-05      7.66557     0.560881 
3.40861e-05      3.93498     -82.3288 
-2.22981e-05      5.05172     -172.661 
2.22878e-05      5.20969      46.5116 
-2.22980e-05      7.38977      156.556 
7.44919e-06      8.48709     -129.907 
-1.48325e-05      3.58175     -39.2185 
-1.48476e-05      7.41387      161.237 
7.42863e-06      3.89287      134.219 
-8.16599e-05      4.73105      134.486 
-1.48483e-05      4.16228      61.1200 
-7.41428e-06      7.01265     -29.4726 
7.41575e-06      7.34775     -160.938 
-7.42670e-06      7.88769      166.359 
7.44130e-06      8.82479     -120.095 
-7.43574e-06      3.46817     -44.4740 
-1.49033e-05      7.55143      158.685 
-7.43591e-06      9.65765      137.015 
-1.48362e-05      5.45100      10.7825 
-7.42964e-06      1.39717     -75.0607 
7.42237e-06      7.46662      78.0577 
-7.42529e-06      7.53745      158.643 
7.42282e-06      10.4110      133.072 
-1.48777e-05      10.0880     -137.774 
-7.43234e-06      9.54884     -128.238 
-7.42393e-06      7.09672     -45.9382 
7.43070e-06      6.52350     -21.7255 
7.45305e-06      7.44814     -158.499 
-7.47065e-06      6.03269     -156.560 
-7.42474e-06      6.53613      56.8901 
-7.42962e-06      8.60003     -153.258 
0.000135865      9.95465     -49.9506 
6.82281e-05      8.17921      138.124 
0.000177119      9.71846     -142.211 
6.68991e-05      5.49585     -174.987 
7.82554e-05      8.18050      51.0316 
-6.46763e-05      8.11483     -134.176 
6.25030e-05      8.84841      37.9768 
1.75182e-05      7.48373     -166.436 
4.21558e-05      9.37919      133.577 
-1.75162e-05      7.73495     -102.204 
-8.22884e-05      9.69806     -136.630 
2.95983e-05      9.44142      47.8960 
-4.61760e-05      6.00274      159.977 
-3.94037e-05      7.13074      133.299 
-2.45143e-05      4.11696      31.8969 
8.47657e-06      9.46261      47.8895 
-5.75604e-05      7.71711     -102.118 
2.40374e-05      6.02246     -149.793 
-5.95263e-05      4.74158      134.615 
6.14948e-05      5.89349     -47.7867 
-8.06062e-06      4.09588      61.0871 
-8.04370e-06      8.05489     -159.507 
1.57446e-05      7.73365     -80.1730 
-7.97048e-06      5.44797      173.674 
8.28700e-05      5.08563      64.4974 
2.23467e-05      9.45256      47.9570 
4.88674e-05      6.73008     -163.422 
-2.28354e-05      2.59501     0.662732 
7.77269e-06      7.50185     -166.352 
-3.74134e-05      8.38101      46.1608 
-7.74103e-06      8.04965     -159.607 
-3.62597e-05      4.36358     -171.894 
-1.51025e-05      4.07549      61.1698 
0.000124569      9.36885      133.510 
-7.65491e-06      6.76980      157.187 
2.22421e-05      7.51926     -78.3761 
7.57803e-05      6.00949     -149.721 
2.19800e-05      9.23923     -128.805 
-3.85445e-05      7.68529     -94.1434 
-2.09714e-05      5.43305      173.656 
-5.35996e-05      9.53956     -38.1671 
-7.06779e-05      8.06895     -159.544 
-0.000148570      6.88539      89.2507 
4.16491e-05      7.73110     -80.2826 
1.46172e-05      7.65253     -131.347 
-7.34488e-06      4.10423      32.0076 
-1.95969e-05      6.85956     -54.4339 
1.38278e-05      9.54471      37.9141 
-4.10294e-05      8.51698     -52.5859 
7.11787e-06      7.64263     -131.262 
6.30037e-05      8.16804      138.053 
-2.71791e-05      8.39185      46.2318 
1.37774e-05      4.41025     -90.5849 
-7.01457e-06      4.06827      61.3550 
7.02314e-06      6.49227     -45.9366 
3.82354e-05      5.06179     -87.1109 
-1.31792e-05      6.61032      158.853 
6.94987e-06      8.54211     -27.9585 
6.30261e-05      9.90100     -39.4058 
-2.52261e-05      8.26298      55.5003 
-4.41493e-05      7.33135      112.368 
7.38848e-05      8.72105     -142.618 
3.79689e-05      7.64404     -131.103 
1.93348e-05      6.91589      59.9297 
-6.83762e-05      8.26617     -46.6920 
2.59174e-05      9.24864     -128.878 
6.83422e-06      8.54074     -27.5084 
5.69710e-05      8.54715     -27.3727 
3.21697e-05      7.21704     -97.5218 
-1.28553e-05      3.07463     -145.530 
-2.60590e-05      4.81733     -173.381 
-3.76918e-05      5.73498      92.3997 
-2.54998e-05      6.99831      124.609 
-3.17857e-05      7.86192     -24.2190 
1.29216e-05      6.53399     -45.3722 
-7.90201e-05      10.3032     -48.0702 
-5.51556e-05      8.11361     -70.2261 
-1.24198e-05      1.00266     -55.3347 
-6.51818e-06      4.37844     -171.921 
6.01016e-05      9.77059      48.9205 
4.24631e-05      7.64731     -166.153 
1.26508e-05      8.83659      38.0367 
-4.90332e-05      8.50787     -52.6662 
1.25767e-05      6.88320     -161.055 
6.60146e-05      9.96614     -50.0061 
1.27133e-05      4.22653     -115.660 
-6.39999e-06      8.74504      146.118 
1.24693e-05      5.48746      63.3684 
6.53700e-05      8.45391      134.497 
-1.25072e-05      7.40313     -60.3740 
-1.24706e-05      3.39875     -81.3654 
-1.82275e-05      6.75247      22.4612 
2.41252e-05      5.46790      156.394 
2.38375e-05      7.45942     -105.156 
-1.83877e-05      9.70897     -136.691 
-1.22354e-05      4.36149     -172.089 
-5.90836e-05      9.06938      45.4693 
-2.98768e-05      4.97265     -176.886 
-6.25717e-06      4.55240     -84.3242 
2.97576e-05      4.10144      95.8806 
-4.71259e-05      8.90330     -145.987 
6.17360e-06      8.26631      30.0539 
2.36579e-05      4.28535     -20.2754 
-1.79531e-05      9.18804      34.9594 
-6.15224e-06      8.93446     -59.0858 
-2.36628e-05      5.98864      159.928 
-1.80400e-05      6.11426      130.919 
-1.79987e-05      2.28493     -156.811 
2.35958e-05      4.28520     -33.5732 
2.34195e-05      4.79496      45.7609 
2.33861e-05      4.96831     -42.5578 
-2.94633e-05      4.85868      105.580 
-1.78505e-05      8.69378      52.8541 
1.75943e-05      4.14994     -120.646 
1.75007e-05      8.74900     -29.0250 
-1.18279e-05      4.81908     -173.204 
-2.92843e-05      6.39058     -90.5382 
-2.34846e-05      6.85397      168.641 
2.34664e-05      8.83919      37.9002 
1.19102e-05      9.22754     -128.864 
5.99143e-06      4.77200      74.1301 
-1.74502e-05      8.42418      61.3826 
-2.32884e-05      5.53202     -68.8581 
-1.74716e-05      5.83879     -177.938 
-1.16390e-05      9.70962     -136.816 
1.73815e-05      5.06595      64.5699 
2.88445e-05      7.14385     -80.6970 
-1.16768e-05      3.40104     -81.1154 
-1.16559e-05      7.41056     -60.2731 
2.30832e-05      6.28708     -101.979 
1.15037e-05      6.54468     -45.4645 
-2.87475e-05      7.91243      107.883 
-1.72921e-05      7.91161      50.8471 
1.15794e-05      8.18995      50.9499 
1.72108e-05      5.18172     -92.9884 
-1.14760e-05      5.45825     -67.0269 
1.14535e-05      8.55360     -27.2372 
1.15006e-05      9.37974      133.447 
-5.76957e-06      3.75880      73.3051 
-5.76277e-06      7.59984      24.2394 
-5.76500e-06      6.12410      131.025 
5.77447e-06      7.72858     -80.3923 
-5.73951e-06      6.58516     -81.3556 
-5.73963e-06      8.70285      52.7754 
5.73266e-06      6.92342      59.8222 
-1.13895e-05      4.45356     -41.3113 
-5.67585e-06      7.34523      112.323 
-5.67253e-06      7.61353      24.1930 
-5.68352e-06      7.13014      133.469 
! Tentative model.
! Flux (Jy) Radius (mas)  Theta (deg)  Major FWHM (mas)  Axial ratio   Phi (deg) T \
! Freq (Hz)     SpecIndex
-6.48985e-06      7.41615      101.196 
