! Center RA: 12 21 31.69052,  Dec: +28 13 58.50011 (2000.0)
! Established model.
! Flux (Jy) Radius (mas)  Theta (deg)  Major FWHM (mas)  Axial ratio   Phi (deg) T \
! Freq (Hz)     SpecIndex
  0.116911      0.00000      0.00000 
 0.0184668    0.0212132     -135.000 
 0.0167330    0.0150000     -90.0000 
0.000585084     0.498623      105.709 
0.000852930     0.517228      106.858 
0.000569519    0.0300000     -90.0000 
0.000831242    0.0450000     -90.0000 
0.000825515     0.531601      106.390 
0.00106805    0.0600000     -90.0000 
0.00106093     0.546008      105.945 
0.000772630    0.0750000     -90.0000 
0.000767625     0.560446      105.524 
0.000994602    0.0764853     -78.6901 
0.000744861     0.564646      106.991 
0.00210708     0.579008      106.557 
0.00187557    0.0912414     -80.5377 
0.00255460     0.106066     -81.8699 
0.00172484     0.593401      106.144 
0.00140450     0.597746      107.526 
0.000199916     0.109202     -74.0546 
0.00116045     0.120934     -82.8750 
0.00337515     0.612066      107.103 
0.00418698     0.123693     -75.9638 
0.00169527     0.616644      108.435 
0.000147871     0.138293     -77.4712 
0.00153864     0.128160     -69.4440 
0.00279020     0.630892      108.004 
0.00296236     0.142302     -71.5651 
0.00277856     0.635689      109.290 
0.00207928     0.134164     -63.4349 
0.00171445     0.640800      110.556 
0.000913665     0.147733     -66.0375 
0.000243507     0.626777      111.038 
0.00112344     0.141510     -57.9946 
0.000438177     0.632317      112.306 
0.000498064     0.646220      111.801 
0.00129101     0.711354      114.944 
0.000345690     0.175570     -70.0169 
0.000704991     0.167705     -63.4349 
0.000812588     0.697782      115.463 
0.000850459     0.154434     -60.9454 
0.000316745     0.704361      116.565 
0.000440770     0.150000     -53.1301 
5.10793e-05     0.684270      116.003 
0.000577164     0.690978      117.121 
0.000328788     0.138293     -49.3987 
0.000175435     0.345326      87.5104 
8.97702e-05     0.731471      118.142 
8.78559e-05     0.744731      117.597 
8.78516e-05     0.162250     -56.3099 
8.60081e-05     0.765000      118.072 
0.000128234     0.174929     -59.0362 
4.23079e-05     0.785318      118.523 
0.000315375     0.346302      85.0303 
8.32747e-05     0.798530      118.009 
0.000123976     0.195576     -57.5288 
8.11394e-05     0.818841      118.443 
4.05464e-05     0.832061      117.951 
4.03779e-05     0.208387     -59.7436 
4.00408e-05     0.331361      84.8056 
0.000117904     0.221472     -61.6992 
7.90470e-05     0.852364      118.369 
0.000114787     0.234787     -63.4349 
7.74183e-05     0.872711      118.768 
3.81206e-05     0.885889      118.301 
7.50744e-05     0.899125      117.848 
0.000207947     0.361248      85.2364 
7.41003e-05     0.248294     -64.9831 
3.72629e-05      3.26773      115.271 
7.35930e-05     0.912414      117.408 
0.00134044      3.27495      114.922 
0.000108182     0.255000     -61.9275 
0.000142978     0.932657      117.801 
0.000206307     0.268328     -63.4349 
0.000103643     0.945952      117.378 
0.000228188     0.360312      87.6141 
3.38741e-05     0.959297      116.966 
0.000132257     0.972690      116.565 
6.58739e-05     0.281824     -64.7989 
0.000339034     0.288531     -62.1027 
9.55666e-05     0.992837      116.952 
0.000211928     0.375300      92.2906 
3.16401e-05     0.979490      117.350 
3.16199e-05     0.375000      90.0000 
3.10322e-05      1.00623      116.565 
6.11519e-05      1.01967      116.188 
5.94453e-05     0.586728      122.471 
5.97899e-05      1.08135      113.720 
2.95537e-05     0.376198      94.5739 
2.94600e-05      1.04667      115.463 
8.35518e-05      1.12270      112.797 
0.000328950     0.295846     -59.5345 
2.88176e-05      1.10888      113.097 
2.87138e-05     0.594916      123.690 
2.84665e-05      1.15879      111.251 
8.34030e-05     0.615731      124.077 
2.81310e-05      1.20980      109.558 
2.79294e-05     0.360000      90.0000 
3.14804e-05      1.30025      106.763 
2.72127e-05      1.26178      108.004 
2.70616e-05     0.657438      124.778 
3.17591e-05      1.33929      105.593 
7.92542e-05     0.645174      125.538 
0.000176195     0.308869     -60.9454 
5.24073e-05      1.37886      104.490 
0.000101199     0.362802      82.8750 
5.04743e-05     0.999725      117.719 
2.56276e-05     0.666108      125.838 
2.55888e-05      1.40432      103.591 
4.95437e-05     0.986471      118.124 
5.00547e-05      1.41891      103.449 
2.50714e-05     0.765588      124.624 
7.31506e-05     0.687059      126.119 
2.44472e-05      1.45940      102.465 
4.80201e-05     0.350179      80.1342 
4.78537e-05      1.47405      102.339 
0.000294189     0.316425     -58.5704 
4.42145e-05     0.928668      121.122 
4.65491e-05     0.364966      80.5377 
2.34621e-05     0.941541      120.651 
4.64634e-05      1.50030      101.535 
2.32540e-05     0.675000      126.870 
6.66980e-05     0.915860      121.608 
2.27972e-05     0.708025      126.384 
4.52399e-05      1.51500      101.421 
0.000172687     0.353058      77.7352 
6.53179e-05     0.954476      120.192 
0.000209162      3.28229      114.574 
2.21646e-05      1.52971      101.310 
2.21508e-05     0.729006      126.634 
4.34231e-05      1.54442      101.201 
4.20582e-05     0.890449      122.619 
2.15117e-05     0.877852      123.147 
2.12782e-05      1.55913      101.094 
4.12232e-05     0.903120      122.106 
0.000142941     0.329317     -59.9314 
2.09718e-05      1.57107      100.452 
2.09045e-05     0.684105      127.875 
4.11035e-05      1.58582      100.353 
9.78658e-05     0.356546      75.3791 
4.00611e-05      1.60058      100.257 
1.99622e-05     0.639570      129.289 
0.000122598     0.962107      120.964 
0.00116088      3.31904      130.601 
0.000258285     0.337083     -57.7244 
9.49812e-05     0.936509      121.908 
1.95350e-05      1.61534      100.162 
1.94704e-05      3.28976      114.228 
1.92234e-05      3.29734      113.883 
1.91722e-05      1.63011      100.069 
1.90628e-05     0.911181      122.905 
1.89800e-05      3.31880      113.437 
5.48748e-05     0.923810      122.400 
1.88510e-05      1.64488      99.9777 
1.87214e-05     0.649173      130.314 
3.71861e-05      3.32665      113.097 
3.57397e-05     0.949276      121.430 
8.96526e-05     0.360624      73.0725 
1.85245e-05      1.65965      99.8880 
1.82488e-05      3.33462      112.759 
1.81964e-05      1.68922      99.7133 
3.57892e-05      3.36482      111.991 
1.78404e-05      1.72134      100.037 
1.77411e-05     0.605413      131.987 
1.75640e-05      3.37317      111.659 
1.75190e-05      1.73612      99.9506 
0.000114454     0.365274      70.8210 
3.44765e-05      3.39560      111.237 
1.72504e-05      1.78305      100.176 
0.000179554     0.349857     -59.0362 
1.69999e-05      1.79781      100.091 
5.01609e-05      3.40421      110.911 
1.67576e-05      1.84476      100.305 
1.66660e-05     0.957183      122.196 
1.65297e-05      1.87698      100.592 
1.64119e-05     0.583459      133.958 
1.63345e-05      3.42697      110.497 
3.24016e-05     0.969910      121.724 
1.62474e-05      1.90925      100.869 
3.20817e-05      3.43582      110.175 
4.63443e-05      1.92684      101.222 
0.000118323     0.982700      121.264 
0.000444948      4.13905      116.936 
9.22735e-05      3.45889      109.771 
3.09136e-05     0.572756      135.000 
2.97669e-05      1.94451      101.570 
1.55796e-05     0.351141      70.0169 
0.000127496     0.995553      120.816 
0.000191429      1.95921      101.482 
0.000260228     0.357806     -56.9761 
3.00645e-05     0.370473      68.6294 
9.78816e-05      1.96225      101.911 
5.83313e-05      3.46799      109.454 
8.56881e-05      2.29230      123.794 
2.87756e-05     0.573149      137.121 
7.13061e-05     0.356546      67.7510 
7.07024e-05      7.23174      122.635 
1.41912e-05      3.22782      115.017 
2.80080e-05      3.52911      108.589 
0.000425830     0.345326     -55.6197 
2.73971e-05      3.20709      115.486 
1.37362e-05     0.563050      138.240 
1.36926e-05      3.55285      108.205 
0.000260295      7.24438      122.571 
4.04062e-05     0.342710      66.8014 
0.000124112      1.00846      120.379 
0.000139935      2.30068      124.104 
1.34853e-05      3.56710      108.130 
2.65000e-05      3.18657      115.962 
2.64263e-05     0.553173      139.399 
1.32729e-05      3.57674      107.827 
5.12943e-05      3.62941      107.312 
3.85531e-05     0.348891      64.5367 
0.000112758      1.97693      101.821 
3.81488e-05      3.16628      116.444 
1.27654e-05     0.564646      140.389 
2.46648e-05     0.555203      141.582 
7.19367e-05     0.335410      63.4349 
2.46427e-05      3.64373      107.241 
4.81173e-05      3.15286      116.565 
4.54126e-05      1.02143      119.954 
3.57349e-05      3.65806      107.172 
2.36223e-05     0.546008      142.815 
4.59788e-05      2.28827      124.315 
1.16268e-05      3.66801      106.879 
5.63374e-05      3.13945      116.687 
2.27977e-05      3.68237      106.811 
1.14340e-05     0.537075      144.090 
2.24909e-05     0.342381      61.1892 
4.41952e-05      1.00332      121.551 
4.39902e-05      2.29676      124.624 
3.30767e-05     0.549295      145.008 
2.22153e-05      3.69673      106.744 
0.000155296      7.25702      122.508 
6.28085e-05     0.329317      59.9314 
4.27126e-05      3.71110      106.677 
7.27832e-05      3.13274      116.442 
3.13980e-05     0.540833      146.310 
9.10164e-05      2.28444      124.838 
7.80425e-05      1.01613      121.109 
4.06266e-05      3.72547      106.611 
3.01900e-05      1.03446      119.539 
0.000146751      1.97391      101.395 
2.98740e-05     0.532658      147.653 
3.89640e-05      4.12568      117.031 
1.94663e-05      3.11931      116.565 
5.73313e-05      3.73560      106.325 
5.60212e-05     0.337083      57.7244 
3.78012e-05      3.12609      116.196 
9.61377e-06     0.545390      148.496 
7.40061e-05      7.26164      122.344 
7.30742e-05      2.28079      125.362 
3.70680e-05     0.537703      149.859 
0.000227100      1.02900      120.677 
0.000102473      4.13252      117.216 
6.18390e-05      3.75000      106.260 
2.70036e-05      3.11264      116.318 
3.47822e-05     0.530330      151.260 
8.85730e-06     0.357806      56.9761 
4.34471e-05      7.26968      122.444 
4.27893e-05      3.11950      115.949 
5.84996e-05      2.27733      125.889 
2.52941e-05     0.345326      55.6197 
0.000111267      7.27432      122.281 
6.46243e-05      3.76440      106.196 
4.06582e-05     0.536656      153.435 
4.02120e-05      3.10601      116.070 
0.000133255      1.98862      101.310 
4.61626e-05     0.366197      55.0080 
4.64789e-05      2.27407      126.416 
2.31244e-05     0.530118      154.885 
7.75852e-06      3.76025      105.977 
2.29434e-05      3.11296      115.701 
5.74530e-05      4.11919      117.312 
1.38500e-05      1.04193      120.256 
7.87657e-05      3.77467      105.914 
2.93143e-05     0.537703      157.011 
4.34439e-05      3.09945      115.821 
3.63613e-05      2.26202      126.642 
0.000104265      7.28701      122.218 
6.84659e-05     0.370473     -58.2405 
2.76814e-05     0.375000      53.1301 
2.77900e-05     0.532024      158.499 
4.10659e-05      2.25903      127.174 
2.72432e-05      3.10649      115.451 
3.26685e-05     0.540833      160.560 
7.54930e-05      3.78910      105.852 
2.58743e-05      4.12609      117.497 
2.59540e-05      3.09295      115.571 
3.22185e-05      2.25624      127.708 
6.80822e-05      2.00333      101.226 
1.92507e-05     0.396011      52.6961 
8.30384e-05     0.375899     -61.3895 
0.000223988      1.02396      121.827 
5.00620e-05      7.29970      122.155 
3.06736e-05      3.10007      115.201 
3.06023e-05     0.536027      162.072 
3.63962e-05      2.25365      128.243 
8.26654e-05      4.11279      117.593 
2.94606e-05     0.417043      52.3058 
6.33991e-05      7.30445      121.993 
2.88920e-05      3.08650      115.320 
3.97612e-05     0.531601      163.610 
2.30348e-05      3.78503      105.633 
2.30112e-05      2.25125      128.779 
5.45625e-05      2.00046      100.804 
0.000134007      3.79947      105.573 
2.20661e-05      2.24905      129.316 
2.18808e-05      3.09371      114.950 
1.08929e-05     0.438092      51.9530 
4.65783e-05     0.389134     -62.4472 
9.66822e-05      7.31717      121.931 
3.13585e-05     0.527565      165.174 
1.59905e-05      2.23746      129.560 
2.58811e-05      3.08012      115.067 
5.26713e-06     0.426380      50.7106 
2.55882e-05      2.23555      130.101 
1.99047e-05     0.447493      50.4403 
0.000181065      3.33044      130.433 
8.38502e-05      2.01520      100.724 
-0.000740943      6.79427      121.549 
2.89457e-05     0.523927      166.759 
2.44624e-05      2.23384      130.643 
1.46788e-05      3.08741      114.697 
4.12316e-05      4.09324      117.974 
9.50342e-06     0.396011     -65.3764 
2.34407e-05      2.23233      131.186 
3.69292e-05      7.32200      121.769 
1.85054e-05      3.07379      114.814 
1.81338e-05     0.468615      50.1944 
2.65009e-05     0.409695     -66.2505 
2.23099e-05     0.520697      168.366 
2.24576e-05      2.23102      131.730 
0.000114548      7.30925      121.831 
8.82857e-06      3.08118      114.444 
3.01474e-05      3.81392      105.512 
2.57444e-05      2.22991      132.274 
1.27391e-05      3.06753      114.560 
2.48013e-05     0.517880      169.992 
8.47539e-06      4.08708      118.258 
2.40175e-05     0.489745      49.9697 
0.000128984      3.80994      105.295 
8.29773e-05      2.01246      100.305 
2.05102e-05      2.22900      132.818 
4.15652e-06     0.417852     -68.9625 
8.26128e-06      4.08000      118.072 
1.21601e-05      3.07500      114.190 
2.34904e-05     0.431885     -69.6769 
2.72508e-05      4.07387      118.358 
1.96935e-05      2.21802      133.082 
7.85641e-05      1.00679      123.453 
1.91116e-05     0.515485      171.634 
1.53685e-05      3.06132      114.305 
2.62460e-05      2.21741      133.630 
1.82646e-05      7.29651      121.893 
7.34612e-06      3.06888      113.934 
2.13253e-05      4.06068      118.458 
1.08960e-05     0.441163     -72.1811 
1.44117e-05     0.513517      173.290 
7.21916e-06     0.510882      49.7636 
1.78631e-05      7.14411      125.859 
3.15257e-05      2.21701      134.178 
1.74676e-05      3.05518      114.048 
7.07585e-06      7.31411      121.669 
2.33596e-05     0.455467     -72.7585 
4.93077e-05      7.13533      125.762 
1.36573e-05     0.511981      174.958 
6.91480e-06      7.31903      121.507 
6.81474e-06     0.499525      48.6522 
1.01310e-05      7.32401      121.346 
3.85121e-05      2.21681      134.726 
9.90045e-06      4.04750      118.560 
3.34309e-06      3.06283      113.678 
6.89499e-05      2.00983      99.8841 
1.30144e-05     0.510882      176.634 
1.91350e-05      3.04910      113.791 
9.82967e-06      7.32905      121.185 
0.000159007      3.34187      130.267 
1.54207e-05     0.520697      48.5035 
5.72826e-05      3.82441      105.235 
1.26715e-05      7.34700      120.964 
1.54594e-05      4.04155      118.848 
1.52015e-05     0.465725     -75.0686 
4.69453e-05     0.994309      123.930 
1.23751e-05     0.510221      178.315 
9.18720e-06      7.35217      120.803 
4.94271e-05      7.12658      125.664 
5.62638e-05      2.21681      135.274 
1.76089e-05      3.04308      113.532 
1.18569e-05      7.35740      120.643 
1.18014e-05     0.510000      180.000 
1.70176e-05      4.02841      118.951 
2.89639e-06      7.36269      120.483 
5.72223e-06     0.476707     -77.2756 
1.12779e-05     0.510221     -178.315 
8.53370e-06      7.37562      120.424 
5.57088e-06     0.541872      48.3665 
0.000106651      3.82050      105.018 
1.37486e-05      7.38099      120.265 
5.55853e-06      3.02933      113.646 
5.53928e-06     0.491350     -77.6609 
1.07790e-05     0.510882     -176.634 
1.32533e-05      3.03712      113.273 
4.63400e-05      7.11784      125.566 
5.33463e-05     0.515485     -81.6341 
2.26961e-05      4.01530      119.055 
5.98226e-05     0.978225      125.640 
1.57336e-05      7.38641      120.106 
5.28530e-06     0.530754      47.2906 
0.000105702      2.00731      99.4623 
1.51185e-05      4.00952      119.346 
7.77419e-06     0.511981     -174.958 
7.47867e-05      2.21701      135.822 
7.53744e-06      3.02335      113.385 
5.07134e-06      7.39190      119.947 
9.78820e-06     0.551951      47.2026 
1.24270e-05     0.513517     -173.290 
7.45707e-06      7.40490      119.889 
1.44023e-05      7.41046      119.730 
1.87163e-05      3.03123      113.012 
1.64607e-05      7.10913      125.467 
1.40993e-05     0.515485     -171.634 
0.000439726      7.40733      128.587 
1.16324e-05      3.99645      119.451 
1.60204e-05      7.41607      119.572 
0.000169614     0.517880     -169.992 
8.87138e-06     0.573149      47.1211 
1.74826e-05      7.10044      125.369 
2.13553e-05      3.99082      119.745 
1.73553e-05      7.42174      119.415 
2.21375e-06      3.01742      113.124 
1.67645e-05      3.02539      112.751 
1.22200e-05      3.97780      119.852 
2.10326e-06     0.966075      126.158 
6.26742e-06      7.42747      119.257 
1.82665e-05      7.09176      125.270 
9.98945e-06     0.584230      48.1221 
1.49677e-05     0.975000      126.870 
1.59938e-05     0.963042      127.405 
5.35549e-05      3.81664      104.801 
3.66391e-05     0.517880     -79.9920 
1.41234e-05      7.44056      119.200 
2.20551e-05      3.35333      130.101 
1.52542e-05      3.03349      112.380 
1.73381e-05      7.44636      119.043 
2.08037e-05      2.21741      136.370 
-0.000255044      7.84674      121.715 
2.86631e-05      3.97231      120.147 
2.24619e-05      7.08311      125.171 
3.22314e-05      2.02211      99.3924 
1.29720e-05      7.45948      118.987 
3.72236e-06      3.95935      120.256 
5.38708e-06     0.605413      48.0128 
-0.000460998      4.33915      123.580 
1.25873e-05      7.46536      118.831 
3.60364e-06      3.01962      112.489 
5.10477e-05      2.22830      136.637 
2.04171e-05      7.07448      125.072 
1.20637e-05      3.02781      112.118 
2.24295e-05      7.47850      118.776 
1.74958e-06      2.01972      98.9726 
5.16467e-06     0.987041      126.347 
-0.000120821      1.76828      122.881 
1.16213e-05      3.98529      120.039 
2.29834e-05      7.49166      118.720 
4.27079e-05      2.22900      137.182 
1.61112e-05      3.01392      112.225 
4.92199e-06     0.999162      125.838 
3.56359e-05      2.21802      136.918 
8.85354e-05      2.21883      137.466 
1.41837e-05      7.50481      118.665 
2.25415e-05      7.06588      124.972 
4.70545e-06      1.01136      125.340 
1.68254e-05      1.99252      99.5332 
6.05546e-06      3.81283      104.583 
1.82300e-05      7.51081      118.510 
2.20712e-05      4.00385      119.638 
1.05726e-05      3.00004      112.333 
4.50497e-06      1.02363      124.854 
1.47056e-05      1.99506      99.9581 
2.59673e-05      7.52399      118.455 
4.35921e-06      3.00828      111.961 
2.90880e-06      1.03598      124.380 
4.30698e-06      3.79832      104.640 
2.24660e-05      1.98028      100.033 
7.03872e-06      2.98617      112.443 
4.22643e-06      1.05268      122.784 
5.42373e-05      2.21985      138.013 
1.40073e-06      3.26163      106.018 
3.23565e-05      7.53718      118.401 
1.36537e-05      4.01689      119.533 
1.44799e-05      7.05729      124.872 
0.000145239      3.53901      101.739 
4.09683e-06      1.06532      122.347 
6.72804e-06      2.97231      112.553 
1.60251e-05      1.96552      100.109 
1.44756e-05      2.20872      137.752 
2.66848e-06      1.08302      120.828 
-0.000187789      2.65174      134.542 
7.87722e-05      4.02260      119.241 
-7.97698e-05      1.77647      123.288 
1.14494e-05      2.95047      113.046 
1.41405e-05      1.96820      100.539 
3.82152e-05      7.55038      118.347 
2.55421e-06      1.07802      121.921 
5.08881e-06      1.32485      105.767 
2.44575e-05      1.95346      100.620 
8.49545e-06     0.513517     -83.2902 
2.48265e-06      1.31462      106.574 
1.23114e-06      1.07342      123.024 
3.24100e-05      2.94463      112.777 
1.21643e-06      1.05683      124.592 
1.18971e-06      1.05321      125.727 
1.18555e-06      7.04872      124.772 
3.52619e-06      1.93872      100.701 
3.52140e-06      1.35374      105.422 
2.34868e-06      1.95628      101.051 
-2.95768e-05      3.44912      118.014 
6.15055e-05      7.55751      118.447 
1.16749e-06      1.05000      126.870 
5.73161e-06     0.511981     -84.9575 
-3.55322e-05      7.66711      125.525 
1.26363e-05      1.94156      101.136 
2.29046e-06      1.04721      128.019 
3.39080e-06      1.36821      105.255 
-5.68114e-05      1.78475      123.690 
1.12148e-06      1.04484      129.174 
5.47297e-06     0.510882     -86.6335 
1.10833e-06      1.04290      130.333 
2.17805e-06      1.38269      105.092 
-1.08328e-05      3.44210      117.793 
2.18363e-06      1.04139      131.496 
1.18388e-05      1.91213      101.310 
-3.24500e-06      4.26436      108.244 
-4.45809e-05      3.43588      118.131 
1.07223e-06      1.04031      132.663 
2.17384e-05      2.74373      116.985 
-3.52545e-05      4.25968      108.052 
1.06652e-06      1.39718      104.931 
3.16013e-06     0.510221     -88.3153 
1.06161e-06      1.03966      133.831 
1.35532e-05      1.89743      101.399 
4.17213e-06      1.41167      104.775 
-3.14503e-06     0.904489      84.2894 
1.05249e-06      1.03945      135.000 
-2.90729e-05      7.67584      125.616 
2.07814e-06      1.03966      136.169 
3.07659e-06     0.510000     -90.0000 
-1.48602e-05     0.903120      85.2364 
2.04841e-06      1.04031      137.337 
1.11112e-05      1.88272      101.489 
4.02384e-06      1.42618      104.621 
1.44898e-05      1.04139      138.504 
-5.49870e-05      1.79311      124.089 
6.60677e-05     0.570197     -116.565 
8.90957e-05      2.75057      117.264 
2.91269e-05      4.02118      118.764 
8.87902e-06      1.86803      101.581 
7.87527e-05      7.55150      118.601 
2.94008e-06      1.44070      104.470 
1.15439e-05      1.87110      102.031 
4.74946e-06      1.45523      104.323 
-4.87923e-05      3.42884      117.910 
-2.10624e-05      7.68458      125.707 
1.30722e-05      1.85643      102.127 
-1.36636e-05     0.901998      86.1859 
2.47526e-05      4.02716      118.474 
1.85112e-06      1.46977      104.178 
2.05910e-05      1.05139      137.891 
1.26613e-05      1.84177      102.225 
-5.49768e-05      1.80156      124.484 
5.69443e-05      2.23922      136.900 
9.11703e-07      1.44452      105.046 
3.57302e-06      1.45902      104.893 
-2.44574e-05      4.25506      107.860 
1.92521e-05      4.02003      118.286 
1.13957e-05      1.82711      102.325 
-4.35597e-06      7.69335      125.797 
-1.34637e-05     0.901124      87.1376 
2.58990e-06      1.47352      104.744 
1.44428e-05      3.36482      129.936 
-4.52733e-05      7.76415      126.516 
1.34913e-05      1.83037      102.783 
2.75463e-05      4.02618      117.997 
-1.34292e-05      3.42266      118.250 
1.22951e-05      2.24003      137.442 
2.51528e-06      1.48803      104.597 
1.96747e-05      1.81574      102.888 
-6.38321e-05      3.41559      118.028 
-8.79907e-05      1.81010      124.875 
1.30377e-05      3.37633      129.773 
8.18625e-07      1.47740      105.306 
8.12976e-07      1.80112      102.995 
-6.63129e-05      2.25499      93.8141 
4.71466e-05      4.01916      117.808 
-8.63608e-06     0.900500      88.0908 
7.11786e-06      1.06151      137.291 
2.40252e-06      1.83375      103.241 
1.49936e-05      2.25020      137.161 
-2.45633e-05      4.25048      107.668 
1.34971e-05      1.84835      103.134 
1.41124e-05      3.38788      129.611 
8.40115e-06      3.24721      106.091 
1.63918e-05      1.86296      103.029 
1.91075e-05      2.25110      137.701 
6.12049e-06      1.07174      136.701 
7.70568e-07      1.87758      102.926 
1.75873e-05      1.88099      103.371 
1.21317e-05      3.39944      129.450 
7.62104e-07      4.02548      117.520 
1.87650e-05      4.01218      117.619 
-5.23370e-06     0.900125      89.0452 
2.61429e-05      1.89559      103.266 
5.20891e-06      1.08208      136.123 
9.66053e-06      2.25220      138.240 
5.93518e-06      3.41104      129.289 
7.43868e-07      7.55869      118.701 
5.17608e-06      4.01857      117.330 
